Acce X,Acce Y,Acce Z,Gyro X,Gyro Y,Gyro Z,Quat x,Quat y,Quat z,Quat w,Mag X,MagY,Mag Z
-0.0001,-0.0537,-0.0509,0.0041,-0.0026,-0.0027,0,0,0,0,48.7549,8.5663,12.9028
0.0218,-0.0675,-0.0796,0.0009,-0.0026,-0.0005,-0.2454,0.4109,0.5345,0.6966,48.7549,8.5663,12.9028
0.0152,-0.0659,-0.0285,-0.0002,-0.0005,0.0005,-0.2456,0.4109,0.5344,0.6966,49.4537,7.8674,11.5433
-0.0165,-0.0537,-0.0532,0.002,0.0006,-0.0027,-0.2458,0.4108,0.5345,0.6965,49.4537,7.8674,11.5433
-0.015,-0.0627,-0.0408,0.0009,0.0027,-0.0016,-0.2459,0.4108,0.5345,0.6965,49.4537,7.8674,11.5433
0.0049,-0.0825,-0.0232,-0.0023,0.0017,-0.0016,-0.246,0.4108,0.5344,0.6965,49.4537,7.8674,11.5433
0.002,-0.0647,-0.0067,-0.0023,0.0027,-0.0016,-0.2462,0.4108,0.5345,0.6964,50.1526,6.4697,11.5433
0.0013,-0.0498,-0.0169,-0.0023,0.0006,-0.0016,-0.2464,0.4106,0.5346,0.6963,50.1526,6.4697,11.5433
0.0253,-0.0615,-0.0272,-0.0023,0.0006,-0.0016,-0.2465,0.4106,0.5346,0.6963,50.1526,6.4697,11.5433
0.0348,-0.0344,-0.0035,-0.0023,0.0006,-0.0005,-0.2466,0.4105,0.5346,0.6963,50.1526,6.4697,11.5433
0.0532,-0.034,-0.0455,-0.0034,-0.0005,0.0016,-0.2466,0.4105,0.5346,0.6963,50.1526,7.1686,11.5433
0.0211,-0.0249,-0.0304,-0.0023,-0.0026,0.0027,-0.2467,0.4104,0.5347,0.6962,50.1526,7.1686,11.5433
0.0266,0.0088,-0.0061,-0.0012,-0.0026,0.0048,-0.2468,0.4104,0.5347,0.6962,50.1526,7.1686,11.5433
-0.0019,-0.027,-0.0087,-0.0012,-0.0015,0.0069,-0.2467,0.4104,0.5348,0.6962,50.1526,7.1686,11.5433
0.0042,-0.0211,0.0011,-0.0012,-0.0015,0.0069,-0.2468,0.4104,0.5348,0.6962,49.4537,7.8674,10.8643
0.004,-0.0204,-0.0089,0.002,-0.0026,0.008,-0.2468,0.4104,0.5348,0.6962,49.4537,7.8674,10.8643
-0.0013,-0.0023,-0.0104,0.0009,0.0006,0.0048,-0.2468,0.4104,0.5348,0.6961,49.4537,7.8674,10.8643
0.0303,-0.0001,-0.0364,0.0009,0.0006,0.0048,-0.2468,0.4104,0.5348,0.6961,49.4537,7.8674,10.8643
0.0872,-0.0222,0.0139,0.002,0.0006,0.0016,-0.2468,0.4104,0.5348,0.6961,49.4537,6.4697,11.5433
0.0974,0.0026,0.0093,0.002,-0.0037,-0.0005,-0.2469,0.4103,0.535,0.6961,49.4537,6.4697,11.5433
0.0761,0.0084,0.0113,0.0041,-0.0047,-0.0037,-0.2468,0.4103,0.535,0.6961,49.4537,6.4697,11.5433
0.0347,-0.0101,-0.0109,0.0041,-0.0079,-0.0048,-0.2468,0.4102,0.535,0.6961,49.4537,6.4697,11.5433
0.0065,-0.0713,-0.0026,0.0052,-0.009,-0.0005,-0.2468,0.4102,0.535,0.6961,52.2476,8.5663,12.2238
-0.0448,-0.0349,-0.0104,0.0041,-0.0068,0.0037,-0.2468,0.4101,0.5351,0.6961,52.2476,8.5663,12.2238
-0.0488,-0.0675,0.0219,0.0041,-0.0047,0.008,-0.2469,0.4101,0.5351,0.6961,52.2476,8.5663,12.2238
-0.0151,-0.0716,-0.0185,0.0009,-0.0026,0.0122,-0.2469,0.4101,0.5351,0.6961,52.2476,8.5663,12.2238
-0.0127,-0.0593,0.0054,-0.0012,-0.0047,0.0133,-0.247,0.4101,0.5351,0.6961,49.4537,7.1686,13.5834
-0.0018,-0.0763,-0.0114,-0.0012,-0.0058,0.0122,-0.2471,0.41,0.5353,0.6959,49.4537,7.1686,13.5834
0.0106,-0.0242,-0.001,-0.0012,-0.009,0.0112,-0.2472,0.4099,0.5353,0.6959,49.4537,7.1686,13.5834
-0.0131,0.0088,-0.0124,-0.0044,-0.0111,0.0048,-0.2472,0.4099,0.5353,0.6959,49.4537,7.1686,13.5834
-0.0201,-0.0045,0.0067,-0.0044,-0.0068,-0.0005,-0.2472,0.4099,0.5354,0.6959,48.0576,8.5663,10.1852
-0.0372,0.0055,0.0405,-0.0044,-0.0026,-0.008,-0.2472,0.4099,0.5353,0.6959,48.0576,8.5663,10.1852
-0.037,0.0004,0.0398,-0.0087,0.0017,-0.0101,-0.2472,0.4099,0.5353,0.696,48.0576,8.5663,10.1852
0.0026,-0.0373,0.0515,-0.0098,0.0017,-0.0122,-0.2472,0.4098,0.5353,0.696,48.0576,8.5663,10.1852
0.0188,-0.0201,0.03,-0.0119,-0.0005,-0.0154,-0.2472,0.4098,0.5353,0.696,48.7549,8.5663,11.5433
0.0544,0.0181,0.0302,-0.0119,-0.0026,-0.0176,-0.2473,0.4097,0.5353,0.696,48.7549,8.5663,11.5433
0.0475,0.0316,0.0165,-0.0119,-0.0047,-0.0186,-0.2473,0.4096,0.5353,0.696,48.7549,8.5663,11.5433
0.0005,0.0647,0.0495,-0.0087,-0.0047,-0.0186,-0.2473,0.4096,0.5353,0.6961,48.7549,8.5663,11.5433
-0.0387,0.041,0.0391,-0.0034,-0.0047,-0.0165,-0.2472,0.4096,0.5353,0.6961,49.4537,7.8674,13.5834
-0.072,0.0185,0.0853,-0.0034,-0.0047,-0.0165,-0.2473,0.4095,0.5354,0.6961,49.4537,7.8674,13.5834
-0.0652,0.0168,0.0896,0.003,0.0006,-0.0091,-0.2473,0.4095,0.5353,0.6961,49.4537,7.8674,13.5834
-0.0547,0.0116,0.0662,0.0073,0.0006,-0.0059,-0.2472,0.4095,0.5353,0.6961,49.4537,7.8674,13.5834
-0.0737,-0.0279,0.0611,0.0083,-0.0005,-0.0037,-0.2472,0.4095,0.5353,0.6961,50.1526,7.1686,12.9028
-0.0705,-0.0305,0.0827,0.0105,0.0017,0.0005,-0.2473,0.4094,0.5354,0.6961,50.1526,7.1686,12.9028
-0.0906,-0.0006,0.0077,0.0094,0.0049,0.0016,-0.2473,0.4094,0.5354,0.6961,50.1526,7.1686,12.9028
-0.0461,-0.0105,0.0701,0.0094,0.0049,0.0048,-0.2473,0.4095,0.5354,0.6961,50.1526,7.1686,12.9028
-0.0605,-0.0158,0.0106,0.0105,0.0102,0.0048,-0.2473,0.4095,0.5354,0.6961,49.4537,8.5663,12.2238
-0.0463,-0.0525,0.0222,0.0116,0.0166,0.0069,-0.2473,0.4095,0.5354,0.696,49.4537,8.5663,12.2238
-0.0381,-0.0783,0.0195,0.0105,0.0187,0.0059,-0.2474,0.4095,0.5354,0.696,49.4537,8.5663,12.2238
-0.0279,-0.094,0.0113,0.0083,0.0208,0.0048,-0.2474,0.4095,0.5354,0.696,49.4537,8.5663,12.2238
-0.021,-0.0728,-0.0142,0.0073,0.023,0.0048,-0.2475,0.4095,0.5354,0.696,50.1526,7.1686,12.2238
0.0022,-0.0787,0.0223,0.0052,0.0262,0.0048,-0.2477,0.4095,0.5356,0.6958,50.1526,7.1686,12.2238
0.004,-0.0517,-0.0227,0.003,0.0251,0.0048,-0.2477,0.4095,0.5355,0.6958,50.1526,7.1686,12.2238
0.034,-0.0784,-0.0377,-0.0023,0.0283,0.0005,-0.2478,0.4096,0.5355,0.6958,50.1526,7.1686,12.2238
0.0273,-0.0752,-0.0292,-0.0034,0.0294,-0.0016,-0.2478,0.4096,0.5355,0.6957,48.0576,6.4697,12.9028
0.0327,-0.0546,-0.0056,-0.0044,0.0262,-0.0027,-0.2481,0.4095,0.5357,0.6955,48.0576,6.4697,12.9028
0.0401,-0.0454,0,-0.0076,0.0272,-0.0016,-0.2482,0.4096,0.5357,0.6955,48.0576,6.4697,12.9028
0.0688,-0.0391,-0.0128,-0.0098,0.0251,-0.0027,-0.2482,0.4096,0.5357,0.6955,48.0576,6.4697,12.9028
0.0532,-0.0228,-0.0727,-0.0098,0.0219,-0.0037,-0.2483,0.4096,0.5357,0.6955,48.7549,7.1686,11.5433
0.0727,-0.047,-0.0234,-0.0119,0.0208,-0.0016,-0.2484,0.4096,0.5358,0.6953,48.7549,7.1686,11.5433
0.0542,-0.0435,-0.0387,-0.0108,0.0166,-0.0005,-0.2485,0.4096,0.5358,0.6953,48.7549,7.1686,11.5433
0.027,-0.0537,-0.0538,-0.0098,0.0123,0.0005,-0.2485,0.4096,0.5358,0.6953,48.7549,7.1686,11.5433
0.0323,-0.036,-0.0037,-0.0098,0.0091,0.0016,-0.2486,0.4096,0.5357,0.6953,48.7549,7.1686,12.2238
0.0253,0.0049,-0.0338,-0.0066,0.0091,0.0037,-0.2487,0.4095,0.5359,0.6952,48.7549,7.1686,12.2238
-0.0055,0.0249,-0.0079,-0.0044,0.0091,0.0037,-0.2487,0.4095,0.5359,0.6952,48.7549,7.1686,12.2238
-0.0359,0.0411,0.0353,-0.0034,0.0123,0.0048,-0.2487,0.4096,0.5359,0.6952,48.7549,7.1686,12.2238
-0.0125,0.0002,0.0201,-0.0044,0.0081,0.0069,-0.2487,0.4096,0.5358,0.6952,50.1526,7.8674,12.9028
-0.0323,0.0262,-0.0054,-0.0034,0.0102,0.0048,-0.2488,0.4096,0.536,0.6951,50.1526,7.8674,12.9028
-0.0641,0.0364,-0.0083,0.0009,0.0145,0.0027,-0.2488,0.4096,0.5359,0.6951,50.1526,7.8674,12.9028
-0.0683,0.0199,0.0186,0.002,0.0166,0.0027,-0.2488,0.4097,0.5359,0.695,50.1526,7.8674,12.9028
-0.0837,0.05,0.041,0.003,0.0166,0.0027,-0.2488,0.4097,0.5359,0.695,48.0576,7.8674,11.5433
-0.1242,0.0379,0.0173,0.0041,0.0155,0.0048,-0.2488,0.4098,0.5359,0.695,48.0576,7.8674,11.5433
-0.1707,-0.0082,0.0591,0.0083,0.0187,0.0037,-0.2488,0.4099,0.5358,0.695,48.0576,7.8674,11.5433
-0.1914,-0.0099,0.0796,0.0105,0.0262,0.0069,-0.2488,0.4099,0.5358,0.695,48.0576,7.8674,11.5433
-0.2541,0.0294,0.078,0.0105,0.0358,0.0112,-0.2488,0.41,0.5358,0.695,48.7549,7.1686,12.2238
-0.267,-0.0225,0.1204,0.0105,0.0454,0.0144,-0.2489,0.4101,0.5358,0.6948,48.7549,7.1686,12.2238
-0.2534,-0.0384,0.119,0.0116,0.056,0.0176,-0.2489,0.4102,0.5358,0.6948,48.7549,7.1686,12.2238
-0.2653,-0.0054,0.1182,0.0116,0.0613,0.0186,-0.249,0.4103,0.5357,0.6948,48.7549,7.1686,12.2238
-0.3113,-0.06,0.1743,0.0116,0.0688,0.0165,-0.249,0.4105,0.5356,0.6947,48.0576,6.4697,12.9028
-0.3604,-0.0252,0.1686,0.0126,0.0837,0.0154,-0.2492,0.4106,0.5357,0.6945,48.0576,6.4697,12.9028
-0.3961,-0.0177,0.2261,0.0126,0.0975,0.0154,-0.2493,0.4108,0.5356,0.6944,48.0576,6.4697,12.9028
-0.4465,-0.0137,0.2439,0.0137,0.1167,0.0133,-0.2493,0.411,0.5355,0.6944,48.0576,6.4697,12.9028
-0.4534,-0.0234,0.2542,0.0116,0.138,0.0133,-0.2494,0.4112,0.5353,0.6943,51.5488,7.8674,12.9028
-0.4151,-0.057,0.2633,0.0073,0.1551,0.0101,-0.2496,0.4115,0.5353,0.6942,51.5488,7.8674,12.9028
-0.3931,-0.0492,0.2745,0.0083,0.17,0.0101,-0.2499,0.4117,0.5352,0.694,51.5488,7.8674,12.9028
-0.4032,-0.0572,0.2631,0.0073,0.1838,0.0112,-0.2501,0.412,0.5351,0.6938,51.5488,7.8674,12.9028
-0.4153,-0.0431,0.2761,0.003,0.1955,0.0133,-0.2504,0.4123,0.535,0.6936,48.7549,7.1686,11.5433
-0.4987,-0.0205,0.2904,0.003,0.2126,0.0133,-0.2508,0.4126,0.535,0.6933,48.7549,7.1686,11.5433
-0.6039,-0.0407,0.3543,0.003,0.235,0.0165,-0.2511,0.413,0.5349,0.693,48.7549,7.1686,11.5433
-0.6898,-0.0411,0.3799,0.0073,0.2627,0.025,-0.2514,0.4134,0.5348,0.6928,48.7549,7.1686,11.5433
-0.6308,-0.0204,0.4299,0.0083,0.2957,0.0261,-0.2518,0.4138,0.5347,0.6924,49.4537,7.1686,12.2238
-0.5764,-0.0093,0.4299,0.0094,0.3212,0.0282,-0.2523,0.4143,0.5347,0.692,49.4537,7.1686,12.2238
-0.5096,-0.0504,0.3616,0.0105,0.3394,0.0272,-0.2527,0.4148,0.5345,0.6916,49.4537,7.1686,12.2238
-0.4767,-0.0268,0.362,0.0083,0.3553,0.0272,-0.2531,0.4154,0.5344,0.6912,49.4537,7.1686,12.2238
-0.5598,-0.015,0.3163,0.0041,0.3724,0.0304,-0.2536,0.416,0.5342,0.6908,50.1526,7.1686,13.5834
-0.7096,-0.0106,0.3517,0.0062,0.399,0.0336,-0.2542,0.4166,0.5342,0.6903,50.1526,7.1686,13.5834
-0.7617,0.0103,0.4705,0.0105,0.4427,0.0346,-0.2547,0.4173,0.534,0.6898,50.1526,7.1686,13.5834
-0.636,0.0384,0.615,0.0147,0.4885,0.0378,-0.2553,0.4181,0.5338,0.6893,50.1526,7.1686,13.5834
-0.5235,0.0013,0.4611,0.019,0.5087,0.0336,-0.2559,0.4189,0.5335,0.6887,48.7549,8.5663,14.2624
-0.4695,0.0561,0.339,0.0179,0.5162,0.0261,-0.2565,0.4198,0.5333,0.6882,48.7549,8.5663,14.2624
-0.576,0.0419,0.3197,0.0169,0.5332,0.0197,-0.2571,0.4207,0.533,0.6876,48.7549,8.5663,14.2624
-0.7887,0.0134,0.3804,0.0211,0.5641,0.0112,-0.2578,0.4217,0.5327,0.687,48.7549,8.5663,14.2624
-0.9802,0.0712,0.4538,0.0233,0.6121,0.008,-0.2586,0.4227,0.5323,0.6864,49.4537,7.1686,14.9429
-1.1348,0.0786,0.4835,0.0254,0.6653,0.0059,-0.2595,0.4237,0.532,0.6856,49.4537,7.1686,14.9429
-1.1235,0.0547,0.6314,0.0307,0.7229,0.0037,-0.2603,0.425,0.5316,0.6849,49.4537,7.1686,14.9429
-0.9336,0.0262,0.6833,0.0329,0.7804,-0.0016,-0.2613,0.4262,0.5311,0.6841,49.4537,7.1686,14.9429
-0.688,-0.0027,0.5912,0.0361,0.8145,-0.0091,-0.2623,0.4276,0.5305,0.6833,49.4537,7.1686,15.6219
-0.3098,-0.0616,0.6344,0.0361,0.8379,-0.0197,-0.2634,0.4289,0.5302,0.6824,49.4537,7.1686,15.6219
0.0082,-0.1064,0.5444,0.0275,0.8464,-0.0261,-0.2645,0.4302,0.5296,0.6815,49.4537,7.1686,15.6219
0.1494,-0.0627,0.4235,0.0105,0.8379,-0.0293,-0.2656,0.4315,0.5291,0.6807,49.4537,7.1686,15.6219
0.108,-0.1187,0.3302,0.002,0.8219,-0.0314,-0.2667,0.4328,0.5285,0.6799,48.7549,8.5663,16.3025
-0.0996,-0.1171,0.372,0.002,0.8241,-0.025,-0.2678,0.434,0.528,0.679,48.7549,8.5663,16.3025
-0.2793,-0.1031,0.4961,0.0062,0.8539,-0.0186,-0.269,0.4353,0.5275,0.6782,48.7549,8.5663,16.3025
-0.3838,-0.07,0.4766,0.0083,0.8869,-0.0091,-0.2701,0.4367,0.5269,0.6773,48.7549,8.5663,16.3025
-0.3982,-0.0411,0.4578,0.0126,0.9135,-0.0037,-0.2713,0.4381,0.5263,0.6763,48.7549,9.2636,17.6605
-0.3009,-0.0573,0.4566,0.0116,0.9444,-0.0048,-0.2725,0.4396,0.5257,0.6754,48.7549,9.2636,17.6605
-0.1085,-0.0443,0.439,0.0062,0.9657,-0.0112,-0.2738,0.4411,0.5251,0.6744,48.7549,9.2636,17.6605
0.0773,-0.0748,0.4146,0.0009,0.9711,-0.0165,-0.275,0.4426,0.5245,0.6733,48.7549,9.2636,17.6605
0.2424,-0.0509,0.3175,-0.0087,0.9711,-0.024,-0.2763,0.4441,0.5238,0.6723,45.2637,8.5663,18.3411
0.2985,-0.0695,0.3339,-0.0183,0.9668,-0.0304,-0.2776,0.4457,0.5232,0.6713,45.2637,8.5663,18.3411
0.3139,-0.0833,0.3018,-0.0247,0.9647,-0.0325,-0.2789,0.4471,0.5226,0.6703,45.2637,8.5663,18.3411
0.2989,-0.1001,0.329,-0.0279,0.9689,-0.0346,-0.2802,0.4486,0.5219,0.6692,45.2637,8.5663,18.3411
0.2279,-0.0854,0.3674,-0.0289,0.9732,-0.0314,-0.2815,0.45,0.5213,0.6682,47.3587,7.1686,19.7006
0.2305,-0.096,0.3692,-0.0289,0.9775,-0.0272,-0.2829,0.4514,0.5208,0.6671,47.3587,7.1686,19.7006
0.2395,-0.0916,0.3466,-0.0289,0.9775,-0.0272,-0.2843,0.4529,0.5201,0.666,47.3587,7.1686,19.7006
0.2367,-0.1317,0.3693,-0.03,0.9913,-0.0186,-0.2856,0.4543,0.5195,0.6649,47.3587,7.1686,19.7006
0.315,-0.1345,0.3379,-0.0321,0.9956,-0.0154,-0.287,0.4558,0.5189,0.6638,47.3587,6.4697,21.0602
0.406,-0.1698,0.3142,-0.0375,0.9956,-0.0154,-0.2885,0.4572,0.5184,0.6626,47.3587,6.4697,21.0602
0.4437,-0.1014,0.2582,-0.0481,0.9881,-0.0176,-0.2898,0.4587,0.5178,0.6615,47.3587,6.4697,21.0602
0.3833,-0.1487,0.2836,-0.0545,0.9838,-0.0176,-0.2912,0.4601,0.5171,0.6603,47.3587,6.4697,21.0602
0.3859,-0.1418,0.2836,-0.0598,0.9892,-0.0186,-0.2926,0.4616,0.5165,0.6592,47.3587,6.4697,20.3796
0.404,-0.1274,0.2933,-0.0652,0.9913,-0.0165,-0.2941,0.4629,0.516,0.658,47.3587,6.4697,20.3796
0.4082,-0.1242,0.2587,-0.0694,0.9913,-0.0133,-0.2955,0.4644,0.5154,0.6568,47.3587,6.4697,20.3796
0.3629,-0.1214,0.2467,-0.0737,0.9892,-0.0122,-0.2969,0.4658,0.5148,0.6557,47.3587,6.4697,20.3796
0.3496,-0.0965,0.2049,-0.0779,0.9881,-0.0112,-0.2983,0.4672,0.5142,0.6545,46.6599,7.8674,22.4182
0.2427,-0.0627,0.2327,-0.079,0.9913,-0.008,-0.2997,0.4686,0.5136,0.6533,46.6599,7.8674,22.4182
0.2058,-0.0915,0.3096,-0.0769,1.0051,-0.0059,-0.3011,0.47,0.513,0.6521,46.6599,7.8674,22.4182
0.2516,-0.0992,0.2681,-0.0779,1.0137,-0.0069,-0.3026,0.4715,0.5124,0.6509,46.6599,7.8674,22.4182
0.2862,-0.0477,0.2125,-0.0779,1.0137,-0.0069,-0.304,0.4729,0.5117,0.6496,46.6599,8.5663,21.7392
0.2668,-0.029,0.2016,-0.0886,1.0158,-0.0016,-0.3054,0.4744,0.5111,0.6484,46.6599,8.5663,21.7392
0.27,-0.0165,0.2502,-0.0896,1.0243,-0.0005,-0.3068,0.4759,0.5104,0.6472,46.6599,8.5663,21.7392
0.3152,0.0187,0.3619,-0.0907,1.0339,-0.0005,-0.3083,0.4774,0.5098,0.6459,46.6599,8.5663,21.7392
0.4214,-0.0022,0.3312,-0.0854,1.036,-0.0005,-0.3097,0.4788,0.5092,0.6446,46.6599,8.5663,23.0988
0.5388,-0.028,0.2997,-0.0833,1.0254,-0.0005,-0.3111,0.4803,0.5085,0.6434,46.6599,8.5663,23.0988
0.6321,-0.0462,0.2505,-0.0833,1.0126,-0.0027,-0.3125,0.4818,0.5079,0.6421,46.6599,8.5663,23.0988
0.7102,-0.0948,0.2349,-0.0822,1.002,-0.0059,-0.3139,0.4832,0.5073,0.6408,46.6599,8.5663,23.0988
0.7437,-0.0654,0.1851,-0.0865,0.9892,-0.0069,-0.3153,0.4846,0.5066,0.6396,46.6599,8.5663,26.4969
0.6361,-0.0469,0.1218,-0.0918,0.9732,-0.0101,-0.3167,0.486,0.5061,0.6383,46.6599,8.5663,26.4969
0.4754,-0.0383,0.1,-0.0971,0.9551,-0.0091,-0.318,0.4873,0.5054,0.6371,46.6599,8.5663,26.4969
0.2863,-0.0448,0.1603,-0.1024,0.9466,-0.0091,-0.3194,0.4887,0.5048,0.6359,46.6599,8.5663,26.4969
0.219,-0.0468,0.2166,-0.1014,0.9529,-0.0059,-0.3208,0.49,0.5042,0.6346,44.5648,7.8674,25.8179
0.2845,-0.0427,0.2557,-0.0992,0.9668,0.0016,-0.3222,0.4913,0.5037,0.6334,44.5648,7.8674,25.8179
0.4174,-0.0256,0.188,-0.0982,0.9753,0.0101,-0.3235,0.4926,0.503,0.6321,44.5648,7.8674,25.8179
0.5362,-0.0338,0.0771,-0.1014,0.9615,0.0133,-0.3249,0.494,0.5024,0.6308,44.5648,7.8674,25.8179
0.5777,-0.0189,0.0727,-0.1035,0.9402,0.0122,-0.3262,0.4954,0.5018,0.6296,43.866,7.8674,27.1774
0.4981,-0.0416,0.0975,-0.1067,0.9263,0.0112,-0.3276,0.4967,0.5013,0.6282,43.866,7.8674,27.1774
0.4205,-0.0444,0.1552,-0.1067,0.9274,0.0101,-0.3289,0.498,0.5007,0.627,43.866,7.8674,27.1774
0.3574,0.0073,0.1543,-0.1088,0.9316,0.008,-0.3302,0.4992,0.5002,0.6257,43.866,7.8674,27.1774
0.3913,0.0007,0.1911,-0.1088,0.9348,0.0091,-0.3315,0.5005,0.4996,0.6245,43.866,8.5663,27.1774
0.4289,0.0151,0.127,-0.1099,0.9316,0.0091,-0.3328,0.5018,0.499,0.6233,43.866,8.5663,27.1774
0.4276,-0.0108,0.1341,-0.111,0.9263,0.0059,-0.3341,0.5031,0.4984,0.622,43.866,8.5663,27.1774
0.4059,0.052,0.136,-0.1088,0.9221,0.0027,-0.3354,0.5044,0.4978,0.6207,43.866,8.5663,27.1774
0.3987,0.0431,0.174,-0.1099,0.9221,-0.0005,-0.3367,0.5057,0.4972,0.6195,43.1686,7.8674,27.8564
0.3899,0.0549,0.2097,-0.1099,0.9221,-0.0027,-0.338,0.5069,0.4966,0.6182,43.1686,7.8674,27.8564
0.4041,0.0413,0.1678,-0.1078,0.9189,-0.0037,-0.3393,0.5082,0.496,0.617,43.1686,7.8674,27.8564
0.4825,0.0194,0.1919,-0.1035,0.9125,-0.0048,-0.3405,0.5094,0.4954,0.6157,43.1686,7.8674,27.8564
0.5358,0.017,0.2011,-0.1046,0.9029,-0.0048,-0.3418,0.5107,0.4947,0.6145,42.4698,6.4697,29.895
0.6079,-0.0055,0.1577,-0.1035,0.8922,-0.0016,-0.3432,0.5118,0.4943,0.6131,42.4698,6.4697,29.895
0.6281,0.0107,0.1073,-0.1046,0.8784,-0.0005,-0.3445,0.513,0.4937,0.6119,42.4698,6.4697,29.895
0.6262,-0.005,0.1026,-0.1046,0.8635,0.0037,-0.3457,0.5142,0.4931,0.6107,42.4698,6.4697,29.895
0.606,0.0109,0.0781,-0.1014,0.8518,0.0048,-0.3469,0.5153,0.4926,0.6095,43.866,7.8674,30.5756
0.5632,-0.0203,0.0807,-0.1003,0.84,0.0091,-0.3481,0.5164,0.492,0.6083,43.866,7.8674,30.5756
0.5379,-0.0208,0.1077,-0.1014,0.8315,0.0112,-0.3493,0.5176,0.4915,0.6071,43.866,7.8674,30.5756
0.561,-0.0316,0.031,-0.1003,0.8251,0.0122,-0.3504,0.5187,0.4909,0.6059,43.866,7.8674,30.5756
0.5659,-0.051,-0.0013,-0.1046,0.8145,0.0154,-0.3515,0.5198,0.4904,0.6048,43.1686,7.1686,31.2546
0.5193,-0.0131,-0.0223,-0.1078,0.8038,0.0197,-0.3528,0.5209,0.4899,0.6035,43.1686,7.1686,31.2546
0.4407,-0.0368,0.0265,-0.1078,0.7974,0.0218,-0.3539,0.5219,0.4894,0.6024,43.1686,7.1686,31.2546
0.3192,-0.0082,0.0689,-0.1088,0.7942,0.025,-0.355,0.523,0.4889,0.6012,43.1686,7.1686,31.2546
0.2676,0.0042,0.0885,-0.1056,0.7985,0.0304,-0.3561,0.5241,0.4884,0.6,41.7709,8.5663,31.2546
0.2432,0.0045,0.092,-0.1078,0.8059,0.0314,-0.3571,0.5252,0.4878,0.5989,41.7709,8.5663,31.2546
0.3302,-0.0177,0.1151,-0.1056,0.8113,0.0357,-0.3582,0.5263,0.4873,0.5977,41.7709,8.5663,31.2546
0.4397,0.0396,0.0859,-0.1056,0.8028,0.0368,-0.3593,0.5274,0.4868,0.5965,41.7709,8.5663,31.2546
0.5658,0.044,0.0641,-0.1046,0.7878,0.0336,-0.3604,0.5285,0.4862,0.5953,41.7709,7.8674,32.6141
0.632,0.0698,0.0856,-0.1014,0.774,0.0282,-0.3614,0.5295,0.4858,0.5941,41.7709,7.8674,32.6141
0.6467,0.0759,0.045,-0.1024,0.7569,0.025,-0.3624,0.5306,0.4853,0.593,41.7709,7.8674,32.6141
0.617,0.0865,0.0483,-0.1024,0.742,0.024,-0.3634,0.5316,0.4848,0.5919,41.7709,7.8674,32.6141
0.5336,0.0599,-0.0094,-0.0992,0.7335,0.0229,-0.3644,0.5326,0.4843,0.5908,42.4698,7.1686,31.9351
0.4561,0.0511,-0.0136,-0.0928,0.7282,0.025,-0.3654,0.5336,0.4838,0.5896,42.4698,7.1686,31.9351
0.3448,0.0363,0.0058,-0.0918,0.726,0.0304,-0.3664,0.5346,0.4833,0.5885,42.4698,7.1686,31.9351
0.3138,0.0643,0.0674,-0.0896,0.7293,0.0346,-0.3674,0.5356,0.4828,0.5874,42.4698,7.1686,31.9351
0.356,0.0487,0.0652,-0.0843,0.726,0.0378,-0.3683,0.5366,0.4823,0.5863,40.3748,7.1686,33.2947
0.4199,-0.0126,0.0145,-0.0822,0.7175,0.0368,-0.3693,0.5375,0.4819,0.5852,40.3748,7.1686,33.2947
0.5047,0.0363,0.0219,-0.0811,0.7058,0.0357,-0.3702,0.5385,0.4814,0.5841,40.3748,7.1686,33.2947
0.4877,0.0612,0.0064,-0.0811,0.6941,0.0325,-0.3711,0.5395,0.4809,0.583,40.3748,7.1686,33.2947
0.4574,0.0476,-0.0167,-0.0801,0.6866,0.0336,-0.372,0.5404,0.4804,0.582,40.3748,8.5663,34.6527
0.4144,0.0239,-0.0009,-0.0801,0.6845,0.0325,-0.3728,0.5414,0.4799,0.581,40.3748,8.5663,34.6527
0.3613,0.0519,0.0927,-0.0769,0.6824,0.0314,-0.3737,0.5424,0.4794,0.5799,40.3748,8.5663,34.6527
0.3909,0.0514,0.0641,-0.0726,0.6781,0.0325,-0.3746,0.5433,0.4789,0.5789,40.3748,8.5663,34.6527
0.4097,0.0913,0.0458,-0.0683,0.6717,0.0325,-0.3754,0.5442,0.4785,0.5779,41.7709,8.5663,35.3333
0.307,0.0853,0.0361,-0.0662,0.6632,0.0304,-0.3762,0.5452,0.4779,0.5769,41.7709,8.5663,35.3333
0.1761,0.0735,0.0694,-0.062,0.6621,0.0336,-0.377,0.5461,0.4774,0.5759,41.7709,8.5663,35.3333
0.0486,0.0763,0.105,-0.0566,0.6707,0.0368,-0.3778,0.547,0.4769,0.5749,41.7709,8.5663,35.3333
-0.0432,0.0795,0.1131,-0.0502,0.6824,0.0421,-0.3786,0.548,0.4764,0.5739,38.2782,7.8674,35.3333
-0.1311,0.0625,0.1223,-0.0449,0.6962,0.0453,-0.3794,0.5489,0.4759,0.5729,38.2782,7.8674,35.3333
-0.2435,0.0342,0.1439,-0.0406,0.7122,0.0506,-0.3802,0.5499,0.4754,0.5718,38.2782,7.8674,35.3333
-0.3011,0.0231,0.191,-0.0406,0.7303,0.0549,-0.3811,0.5509,0.4749,0.5708,38.2782,7.8674,35.3333
-0.2388,0.0076,0.2753,-0.0364,0.7537,0.0644,-0.3819,0.552,0.4743,0.5697,37.5809,6.4697,34.6527
-0.1405,0.0402,0.2731,-0.0311,0.7708,0.0698,-0.3828,0.553,0.4738,0.5685,37.5809,6.4697,34.6527
0.0058,0.0511,0.2821,-0.0321,0.7782,0.0666,-0.3837,0.5541,0.4733,0.5673,37.5809,6.4697,34.6527
0.1929,0.0749,0.2545,-0.0279,0.7804,0.0613,-0.3845,0.5552,0.4727,0.5661,37.5809,6.4697,34.6527
0.3555,0.0523,0.2161,-0.0236,0.7761,0.0538,-0.3854,0.5563,0.4721,0.565,38.2782,8.5663,38.0524
0.4197,0.0912,0.1918,-0.0236,0.7644,0.0453,-0.3862,0.5574,0.4714,0.5638,38.2782,8.5663,38.0524
0.3933,0.0687,0.1945,-0.0225,0.7569,0.0378,-0.387,0.5585,0.4708,0.5627,38.2782,8.5663,38.0524
0.3004,0.0461,0.1689,-0.0193,0.7527,0.0346,-0.3878,0.5596,0.4702,0.5616,38.2782,8.5663,38.0524
0.1732,0.0431,0.1168,-0.0151,0.7516,0.0325,-0.3887,0.5607,0.4695,0.5605,37.5809,9.2636,37.3718
-0.0389,0.0764,0.1316,-0.0098,0.7612,0.0336,-0.3894,0.5618,0.4687,0.5595,37.5809,9.2636,37.3718
-0.1712,0.0219,0.2138,-0.0055,0.7836,0.0336,-0.3902,0.5629,0.468,0.5584,37.5809,9.2636,37.3718
-0.2327,0.0075,0.2675,-0.0044,0.8091,0.0357,-0.3911,0.564,0.4673,0.5573,37.5809,9.2636,37.3718
-0.1429,0.0011,0.2219,-0.0044,0.8315,0.0368,-0.392,0.5651,0.4666,0.5561,37.5809,7.8674,39.4104
-0.0143,-0.028,0.1887,-0.0076,0.8411,0.0336,-0.3929,0.5663,0.4659,0.5549,37.5809,7.8674,39.4104
0.0364,-0.0277,0.2099,-0.0119,0.8432,0.0304,-0.3938,0.5675,0.4651,0.5536,37.5809,7.8674,39.4104
0.0617,-0.0631,0.2585,-0.0161,0.8496,0.0293,-0.3948,0.5686,0.4644,0.5524,37.5809,7.8674,39.4104
0.0903,-0.0798,0.2835,-0.0193,0.8571,0.0304,-0.3957,0.5698,0.4636,0.5512,36.882,6.4697,39.4104
0.1591,-0.1396,0.2953,-0.0204,0.8656,0.0336,-0.3968,0.5709,0.463,0.5498,36.882,6.4697,39.4104
0.2689,-0.1402,0.2949,-0.0247,0.8656,0.0346,-0.3978,0.572,0.4622,0.5485,36.882,6.4697,39.4104
0.4264,-0.1431,0.2254,-0.0289,0.856,0.0368,-0.3988,0.5731,0.4615,0.5472,36.882,6.4697,39.4104
0.5174,-0.134,0.2218,-0.0353,0.8454,0.0389,-0.3998,0.5743,0.4607,0.546,35.4858,7.1686,40.77
0.5698,-0.1442,0.2327,-0.0417,0.8326,0.0399,-0.4009,0.5754,0.4601,0.5446,35.4858,7.1686,40.77
0.5886,-0.0953,0.1921,-0.0428,0.8166,0.041,-0.4018,0.5764,0.4594,0.5434,35.4858,7.1686,40.77
0.5256,-0.1131,0.1996,-0.0449,0.807,0.0399,-0.4028,0.5775,0.4587,0.5421,35.4858,7.1686,40.77
0.4552,-0.0881,0.1307,-0.0481,0.8038,0.0378,-0.4037,0.5786,0.458,0.5408,35.4858,6.4697,41.4505
0.3182,-0.0971,0.1319,-0.0492,0.807,0.0368,-0.4048,0.5795,0.4574,0.5395,35.4858,6.4697,41.4505
0.2596,-0.0909,0.1391,-0.0513,0.8123,0.0314,-0.4057,0.5806,0.4567,0.5382,35.4858,6.4697,41.4505
0.3261,-0.1356,0.12,-0.0534,0.8241,0.0282,-0.4067,0.5816,0.456,0.537,35.4858,6.4697,41.4505
0.4717,-0.1542,0.0575,-0.0577,0.8315,0.0218,-0.4077,0.5827,0.4553,0.5357,33.3893,6.4697,39.4104
0.5502,-0.1505,0.0312,-0.0705,0.8251,0.0144,-0.4088,0.5837,0.4546,0.5343,33.3893,6.4697,39.4104
0.5448,-0.1404,-0.0068,-0.0822,0.8113,0.0037,-0.4098,0.5847,0.4539,0.533,33.3893,6.4697,39.4104
0.5268,-0.1686,0.0298,-0.0939,0.8006,-0.0059,-0.4108,0.5857,0.4532,0.5318,33.3893,6.4697,39.4104
0.4983,-0.1797,0.0423,-0.1046,0.7921,-0.0133,-0.4119,0.5867,0.4525,0.5305,34.787,8.5663,40.77
0.5265,-0.1571,0.0088,-0.1142,0.7878,-0.0186,-0.4128,0.5877,0.4517,0.5293,34.787,8.5663,40.77
0.5619,-0.1564,-0.0317,-0.1227,0.7836,-0.024,-0.4139,0.5886,0.451,0.5281,34.787,8.5663,40.77
0.5982,-0.1502,-0.0503,-0.1323,0.7729,-0.0282,-0.415,0.5894,0.4503,0.5268,34.787,8.5663,40.77
0.5774,-0.0919,-0.0253,-0.1408,0.7623,-0.0325,-0.4162,0.5903,0.4497,0.5256,33.3893,7.1686,43.4891
0.5792,-0.134,0.0116,-0.1482,0.7516,-0.0357,-0.4173,0.5911,0.4491,0.5243,33.3893,7.1686,43.4891
0.5814,-0.0683,0.0092,-0.1493,0.742,-0.0336,-0.4184,0.5918,0.4484,0.523,33.3893,7.1686,43.4891
0.5973,-0.0795,-0.0318,-0.1557,0.7356,-0.0357,-0.4195,0.5926,0.4478,0.5218,33.3893,7.1686,43.4891
0.4965,0.0125,-0.0396,-0.16,0.726,-0.0368,-0.4206,0.5934,0.4472,0.5206,31.9931,8.5663,44.1696
0.3825,-0.0531,0.0396,-0.1642,0.7122,-0.0346,-0.4216,0.5942,0.4466,0.5194,31.9931,8.5663,44.1696
0.3338,-0.016,0.0877,-0.1642,0.7079,-0.0336,-0.4226,0.5949,0.446,0.5182,31.9931,8.5663,44.1696
0.3051,0.0076,0.1189,-0.1653,0.7143,-0.0293,-0.4237,0.5956,0.4455,0.517,31.9931,8.5663,44.1696
0.3616,-0.0018,0.1343,-0.161,0.7186,-0.0272,-0.4247,0.5963,0.4449,0.5158,32.692,7.8674,42.1295
0.3624,0.0241,0.0797,-0.16,0.7165,-0.0282,-0.4257,0.5971,0.4443,0.5147,32.692,7.8674,42.1295
0.3863,0.0535,0.1133,-0.161,0.7069,-0.0304,-0.4267,0.5978,0.4437,0.5135,32.692,7.8674,42.1295
0.4181,0.0393,0.1076,-0.161,0.7005,-0.0304,-0.4277,0.5985,0.4432,0.5123,32.692,7.8674,42.1295
0.451,0.0485,0.1213,-0.1632,0.693,-0.0346,-0.4288,0.5992,0.4426,0.5111,31.9931,7.8674,42.1295
0.5185,0.0556,0.1571,-0.1621,0.6866,-0.0346,-0.4296,0.6,0.442,0.51,31.9931,7.8674,42.1295
0.5586,0.0813,0.1385,-0.1621,0.676,-0.0378,-0.4306,0.6006,0.4415,0.5088,31.9931,7.8674,42.1295
0.5839,0.0941,0.1038,-0.16,0.6653,-0.0378,-0.4316,0.6013,0.4409,0.5077,31.9931,7.8674,42.1295
0.5542,0.111,0.1257,-0.1568,0.6536,-0.0378,-0.4326,0.6019,0.4404,0.5065,30.5954,7.1686,44.1696
0.549,0.1577,0.1442,-0.1514,0.6408,-0.0389,-0.4335,0.6026,0.4399,0.5055,30.5954,7.1686,44.1696
0.5325,0.1121,0.0888,-0.1493,0.6291,-0.0346,-0.4344,0.6032,0.4394,0.5044,30.5954,7.1686,44.1696
0.4604,0.1679,0.0906,-0.1418,0.6195,-0.0282,-0.4353,0.6038,0.4389,0.5033,30.5954,7.1686,44.1696
0.368,0.1681,0.1254,-0.1344,0.6131,-0.025,-0.4362,0.6044,0.4384,0.5022,31.2943,7.8674,44.1696
0.2845,0.1609,0.11,-0.1259,0.6121,-0.0208,-0.4369,0.6051,0.4378,0.5013,31.2943,7.8674,44.1696
0.2356,0.1977,0.2103,-0.1142,0.6195,-0.0144,-0.4378,0.6058,0.4373,0.5002,31.2943,7.8674,44.1696
0.2325,0.1755,0.2227,-0.1046,0.6227,-0.0069,-0.4386,0.6064,0.4368,0.4992,31.2943,7.8674,44.1696
0.2435,0.2275,0.1966,-0.095,0.6238,-0.0027,-0.4393,0.6071,0.4363,0.4981,29.8981,7.1686,45.5276
0.2287,0.2285,0.2415,-0.0875,0.6216,0.0016,-0.4401,0.6078,0.4357,0.4971,29.8981,7.1686,45.5276
0.2186,0.2155,0.2523,-0.0779,0.6238,0.0016,-0.4408,0.6085,0.4352,0.4961,29.8981,7.1686,45.5276
0.2274,0.2329,0.3097,-0.0683,0.6216,0.0027,-0.4415,0.6092,0.4346,0.495,29.8981,7.1686,45.5276
0.2794,0.2632,0.2909,-0.0577,0.6249,0.0027,-0.4422,0.6099,0.4341,0.494,27.803,8.5663,46.2082
0.3361,0.2529,0.2262,-0.046,0.6185,0.0027,-0.4428,0.6107,0.4334,0.4931,27.803,8.5663,46.2082
0.3156,0.2765,0.2005,-0.0353,0.6099,0.0016,-0.4434,0.6115,0.4328,0.4921,27.803,8.5663,46.2082
0.1572,0.2356,0.2535,-0.0257,0.6078,0.0027,-0.4441,0.6122,0.4322,0.4911,27.803,8.5663,46.2082
0.0109,0.2258,0.3276,-0.013,0.6195,0.0048,-0.4447,0.6129,0.4316,0.4902,29.8981,6.4697,44.8486
-0.0574,0.2148,0.3432,0.0009,0.6355,0.008,-0.4453,0.6137,0.4309,0.4892,29.8981,6.4697,44.8486
-0.1135,0.1863,0.2609,0.0083,0.6536,0.0133,-0.4459,0.6145,0.4303,0.4883,29.8981,6.4697,44.8486
-0.1517,0.1425,0.2596,0.0105,0.6653,0.0197,-0.4466,0.6153,0.4296,0.4873,29.8981,6.4697,44.8486
-0.1827,0.0896,0.3351,0.019,0.6813,0.024,-0.4472,0.6161,0.4289,0.4862,29.1992,5.7724,45.5276
-0.1947,0.0961,0.3733,0.0254,0.7026,0.0293,-0.4479,0.617,0.4282,0.4852,29.1992,5.7724,45.5276
-0.173,0.1123,0.3718,0.0286,0.7175,0.0325,-0.4486,0.6178,0.4274,0.4841,29.1992,5.7724,45.5276
-0.0734,0.065,0.3363,0.0307,0.7303,0.0314,-0.4492,0.6188,0.4266,0.483,29.1992,5.7724,45.5276
-0.0251,0.0449,0.3432,0.0307,0.7303,0.0314,-0.4499,0.6197,0.4258,0.4819,27.803,7.1686,46.2082
0.023,0.0193,0.3767,0.0361,0.741,0.0272,-0.4505,0.6207,0.425,0.4808,27.803,7.1686,46.2082
0.0888,0.0599,0.361,0.0382,0.7452,0.0229,-0.4512,0.6216,0.4242,0.4797,27.803,7.1686,46.2082
0.1318,0.0478,0.3526,0.0382,0.7452,0.0176,-0.4519,0.6226,0.4233,0.4786,27.803,7.1686,46.2082
0.1987,0.0265,0.3126,0.0403,0.7452,0.0133,-0.4526,0.6235,0.4225,0.4775,25.7065,7.8674,46.8872
0.1975,0.0559,0.305,0.0414,0.7431,0.0037,-0.4532,0.6245,0.4215,0.4764,25.7065,7.8674,46.8872
0.1909,0.0362,0.3181,0.0446,0.7431,-0.0016,-0.4539,0.6254,0.4206,0.4753,25.7065,7.8674,46.8872
0.2241,0.0027,0.3075,0.0478,0.7431,-0.008,-0.4546,0.6263,0.4197,0.4742,25.7065,7.8674,46.8872
0.2647,-0.0339,0.2955,0.0478,0.7388,-0.0112,-0.4553,0.6272,0.4188,0.4731,28.5004,6.4697,46.8872
0.3387,-0.0342,0.2969,0.052,0.7378,-0.0154,-0.456,0.6282,0.4179,0.4721,28.5004,6.4697,46.8872
0.4322,-0.0764,0.2688,0.051,0.726,-0.0208,-0.4567,0.6291,0.4169,0.471,28.5004,6.4697,46.8872
0.5266,-0.1366,0.2703,0.0478,0.709,-0.0208,-0.4575,0.6299,0.416,0.4699,28.5004,6.4697,46.8872
0.5757,-0.157,0.2817,0.0456,0.6962,-0.0208,-0.4582,0.6308,0.4151,0.4689,25.7065,7.1686,46.8872
0.6681,-0.1598,0.1767,0.0424,0.6802,-0.0208,-0.4589,0.6316,0.4142,0.4679,25.7065,7.1686,46.8872
0.6273,-0.2084,0.1612,0.0361,0.6589,-0.024,-0.4596,0.6324,0.4133,0.4669,25.7065,7.1686,46.8872
0.5574,-0.2182,0.1167,0.0339,0.6398,-0.0218,-0.4603,0.6332,0.4124,0.4659,25.7065,7.1686,46.8872
0.4683,-0.222,0.1393,0.0318,0.6323,-0.0176,-0.4609,0.634,0.4116,0.465,25.0092,7.1686,46.2082
0.414,-0.1976,0.1111,0.0275,0.6312,-0.0144,-0.4615,0.6347,0.4107,0.4641,25.0092,7.1686,46.2082
0.4618,-0.2341,0.13,0.0233,0.627,-0.0112,-0.4622,0.6355,0.4099,0.4631,25.0092,7.1686,46.2082
0.5538,-0.22,0.0685,0.0158,0.6142,-0.0069,-0.4629,0.6362,0.4092,0.4622,25.0092,7.1686,46.2082
0.6354,-0.244,0.0149,0.0073,0.595,-0.0005,-0.4635,0.6369,0.4084,0.4612,24.3103,7.8674,47.5677
0.6127,-0.2452,-0.0134,-0.0012,0.579,0.0027,-0.464,0.6377,0.4076,0.4603,24.3103,7.8674,47.5677
0.586,-0.212,0.0264,-0.0044,0.5695,0.0069,-0.4647,0.6383,0.4069,0.4594,24.3103,7.8674,47.5677
0.5405,-0.2037,-0.013,-0.0098,0.5609,0.0112,-0.4653,0.639,0.4062,0.4585,24.3103,7.8674,47.5677
0.5925,-0.1861,0.0453,-0.013,0.5524,0.0144,-0.4659,0.6397,0.4056,0.4575,24.3103,6.4697,47.5677
0.6635,-0.1883,-0.006,-0.014,0.5407,0.0154,-0.4664,0.6403,0.405,0.4566,24.3103,6.4697,47.5677
0.7306,-0.1498,0.0069,-0.0183,0.5237,0.0133,-0.467,0.6409,0.4043,0.4557,24.3103,6.4697,47.5677
0.7813,-0.1352,-0.0123,-0.0236,0.5045,0.008,-0.4676,0.6415,0.4037,0.4548,24.3103,6.4697,47.5677
0.8052,-0.0996,-0.0315,-0.0279,0.4874,0.0037,-0.4681,0.6421,0.4032,0.4539,23.6115,7.1686,47.5677
0.7892,-0.1146,-0.0515,-0.03,0.4672,0.0005,-0.4686,0.6427,0.4026,0.4531,23.6115,7.1686,47.5677
0.7557,-0.0606,-0.0735,-0.0353,0.4512,-0.0027,-0.4691,0.6432,0.4021,0.4523,23.6115,7.1686,47.5677
0.6743,-0.0628,-0.0871,-0.0375,0.4384,-0.0059,-0.4696,0.6437,0.4015,0.4515,23.6115,7.1686,47.5677
0.5437,-0.083,-0.0866,-0.0385,0.4256,-0.008,-0.4701,0.6442,0.4011,0.4508,22.9126,7.8674,47.5677
0.4608,-0.1224,-0.1151,-0.0417,0.4182,-0.008,-0.4704,0.6448,0.4005,0.4501,22.9126,7.8674,47.5677
0.4094,-0.0783,-0.1229,-0.046,0.4161,-0.0101,-0.4709,0.6452,0.4,0.4494,22.9126,7.8674,47.5677
0.3886,-0.0939,-0.1732,-0.0492,0.415,-0.0091,-0.4714,0.6456,0.3996,0.4486,22.9126,7.8674,47.5677
0.4085,-0.0412,-0.1687,-0.0513,0.4086,-0.0133,-0.4719,0.646,0.3991,0.4479,22.2153,8.5663,48.2468
0.3491,-0.0554,-0.1691,-0.0566,0.4043,-0.0176,-0.4722,0.6466,0.3985,0.4473,22.2153,8.5663,48.2468
0.2822,-0.0497,-0.1372,-0.0588,0.4075,-0.0208,-0.4727,0.647,0.3981,0.4466,22.2153,8.5663,48.2468
0.2202,-0.0484,-0.1136,-0.0577,0.4129,-0.0229,-0.4733,0.6474,0.3977,0.4458,22.2153,8.5663,48.2468
0.2236,-0.0153,-0.0642,-0.0577,0.4129,-0.0229,-0.4738,0.6478,0.3972,0.4451,20.8176,5.0735,48.9273
0.2661,-0.0522,-0.1325,-0.062,0.4193,-0.0197,-0.4745,0.648,0.3969,0.4443,20.8176,5.0735,48.9273
0.2197,-0.056,-0.0949,-0.0673,0.4203,-0.0208,-0.475,0.6484,0.3965,0.4435,20.8176,5.0735,48.9273
0.2534,-0.0527,-0.0511,-0.0673,0.4171,-0.0186,-0.4756,0.6488,0.3961,0.4427,20.8176,5.0735,48.9273
0.218,-0.0501,0.0071,-0.0705,0.4203,-0.0154,-0.4761,0.6492,0.3956,0.442,21.5164,5.0735,50.2869
0.1976,-0.0514,0.0048,-0.0726,0.4203,-0.0122,-0.4768,0.6495,0.3953,0.4411,21.5164,5.0735,50.2869
0.1801,-0.0533,-0.0019,-0.0726,0.4224,-0.0122,-0.4773,0.6498,0.3949,0.4404,21.5164,5.0735,50.2869
0.208,0.0185,0.0202,-0.0726,0.4224,-0.0122,-0.4778,0.6502,0.3945,0.4396,21.5164,5.0735,50.2869
0.2348,0.0063,0.0953,-0.0726,0.4224,-0.0122,-0.4778,0.6502,0.3945,0.4396,21.5164,5.0735,50.2869
0.2523,-0.0019,0.0812,-0.0779,0.4278,-0.0165,-0.4793,0.6515,0.3932,0.4373,21.5164,7.8674,50.2869
0.3145,0.0194,0.111,-0.0779,0.4278,-0.0165,-0.4793,0.6515,0.3932,0.4373,21.5164,7.8674,50.2869
0.3516,0.0348,0.0903,-0.079,0.4235,-0.0229,-0.4798,0.6518,0.3928,0.4366,21.5164,7.8674,50.2869
0.3949,0.0208,0.0871,-0.0769,0.4182,-0.0293,-0.4804,0.6522,0.3924,0.4358,22.2153,7.1686,50.2869
0.3674,0.0424,0.124,-0.0779,0.415,-0.0357,-0.4808,0.6526,0.3919,0.4351,22.2153,7.1686,50.2869
0.3308,0.0153,0.1485,-0.0779,0.4054,-0.0538,-0.4814,0.6529,0.3915,0.4344,22.2153,7.1686,50.2869
0.2684,0.0153,0.1188,-0.0769,0.4011,-0.0591,-0.4819,0.6532,0.3911,0.4337,22.2153,7.1686,50.2869
0.1617,-0.0194,0.0999,-0.0779,0.4022,-0.0634,-0.4825,0.6535,0.3907,0.433,20.8176,7.8674,50.9659
0.0692,-0.0657,0.094,-0.0801,0.4065,-0.0613,-0.4829,0.6539,0.3902,0.4324,20.8176,7.8674,50.9659
0.0215,-0.0867,0.1639,-0.0833,0.4171,-0.0602,-0.4835,0.6542,0.3897,0.4317,20.8176,7.8674,50.9659
0.0433,-0.0648,0.1654,-0.0875,0.4193,-0.0591,-0.4841,0.6545,0.3893,0.431,20.8176,7.8674,50.9659
0.068,-0.0554,0.1619,-0.0875,0.4193,-0.0591,-0.4847,0.6547,0.3889,0.4302,20.8176,7.8674,50.9659
0.0239,-0.0705,0.1425,-0.096,0.4235,-0.0517,-0.4852,0.6551,0.3884,0.4296,21.5164,7.8674,50.9659
0.0306,-0.0871,0.1826,-0.096,0.4235,-0.0517,-0.4858,0.6554,0.3879,0.4289,21.5164,7.8674,50.9659
0.1276,-0.0848,0.1688,-0.096,0.4224,-0.0442,-0.4864,0.6557,0.3876,0.4281,21.5164,7.8674,50.9659
0.1553,-0.043,0.1381,-0.1014,0.4235,-0.0357,-0.487,0.656,0.3872,0.4273,20.8176,7.1686,50.2869
0.1224,-0.0112,0.1148,-0.1003,0.4161,-0.0186,-0.4874,0.6564,0.3867,0.4266,20.8176,7.1686,50.2869
0.0971,0.0403,0.142,-0.1014,0.4107,-0.0091,-0.488,0.6567,0.3864,0.4258,20.8176,7.1686,50.2869
0.0437,0.0722,0.2447,-0.1014,0.4107,-0.0091,-0.4885,0.6571,0.386,0.425,20.8176,7.1686,50.2869
0.1132,0.1137,0.2461,-0.1014,0.4107,-0.0005,-0.489,0.6574,0.3857,0.4242,20.8176,7.1686,50.2869
0.2437,0.1347,0.2556,-0.0886,0.4182,0.0122,-0.4893,0.6579,0.3853,0.4235,20.8176,7.1686,50.2869
0.3035,0.1285,0.2233,-0.0769,0.4054,0.0122,-0.4897,0.6583,0.3849,0.4227,20.8176,7.1686,50.2869
0.3398,0.141,0.2165,-0.0769,0.4054,0.0122,-0.4902,0.6586,0.3846,0.4219,20.8176,7.1686,50.2869
0.3178,0.1571,0.213,-0.063,0.3905,0.0133,-0.4906,0.659,0.3842,0.4212,20.1202,5.7724,51.6449
0.2966,0.1572,0.2521,-0.063,0.3905,0.0133,-0.491,0.6594,0.3839,0.4204,20.1202,5.7724,51.6449
0.2139,0.1236,0.2338,-0.0502,0.3798,0.0197,-0.4914,0.6597,0.3836,0.4197,20.1202,5.7724,51.6449
0.1863,0.1555,0.2642,-0.0417,0.3809,0.0218,-0.4918,0.6601,0.3832,0.419,20.1202,5.7724,51.6449
0.151,0.1792,0.2571,-0.0343,0.382,0.024,-0.4921,0.6605,0.3829,0.4183,18.7225,7.1686,48.9273
0.106,0.2226,0.2704,-0.0268,0.3862,0.0261,-0.4922,0.661,0.3824,0.4177,18.7225,7.1686,48.9273
0.056,0.1907,0.2812,-0.0193,0.3916,0.025,-0.4924,0.6615,0.3821,0.417,18.7225,7.1686,48.9273
0.0275,0.1853,0.3133,-0.0119,0.399,0.024,-0.4927,0.6619,0.3818,0.4164,18.7225,7.1686,48.9273
0.0349,0.1741,0.2938,-0.0023,0.4043,0.0218,-0.4929,0.6623,0.3814,0.4157,19.4214,6.4697,50.2869
0.0862,0.1698,0.2733,-0.0023,0.4043,0.0218,-0.4934,0.6633,0.3806,0.4144,19.4214,6.4697,50.2869
0.094,0.1608,0.28,0.0052,0.4097,0.0197,-0.4934,0.6633,0.3806,0.4144,19.4214,6.4697,50.2869
0.113,0.1401,0.2445,0.0147,0.4118,0.0186,-0.4936,0.6638,0.3801,0.4138,19.4214,6.4697,50.2869
0.1146,0.0969,0.2387,0.0211,0.4097,0.0186,-0.4939,0.6642,0.3797,0.4131,19.4214,7.1686,51.6449
0.1418,0.0685,0.2209,0.0211,0.4097,0.0186,-0.494,0.6648,0.3791,0.4126,19.4214,7.1686,51.6449
0.0986,0.0694,0.2579,0.0254,0.4097,0.0229,-0.4943,0.6653,0.3787,0.4119,19.4214,7.1686,51.6449
0.1465,0.044,0.235,0.0254,0.4097,0.0229,-0.4946,0.6657,0.3782,0.4113,19.4214,7.1686,51.6449
0.1551,0.0338,0.1681,0.0275,0.4086,0.0282,-0.4949,0.6662,0.3777,0.4106,20.1202,7.8674,50.2869
0.175,0.0206,0.1838,0.0307,0.4011,0.0357,-0.4949,0.6669,0.3771,0.4101,20.1202,7.8674,50.2869
0.1827,0.0549,0.1578,0.0361,0.4001,0.0399,-0.4951,0.6673,0.3766,0.4095,20.1202,7.8674,50.2869
0.1781,0.0654,0.1828,0.0361,0.4001,0.0399,-0.4954,0.6678,0.3761,0.4088,20.1202,7.8674,50.2869
0.1703,0.0833,0.1897,0.0424,0.3947,0.0399,-0.4957,0.6683,0.3756,0.4082,17.3264,6.4697,51.6449
0.1828,0.0557,0.1726,0.0446,0.3926,0.0431,-0.4959,0.6689,0.375,0.4075,17.3264,6.4697,51.6449
0.2049,0.0843,0.173,0.0478,0.3884,0.0431,-0.4961,0.6694,0.3745,0.4069,17.3264,6.4697,51.6449
0.1958,0.0852,0.1999,0.0478,0.3884,0.0431,-0.4963,0.6699,0.374,0.4063,17.3264,6.4697,51.6449
0.2068,0.0529,0.1519,0.0552,0.383,0.0399,-0.4966,0.6704,0.3735,0.4056,16.6275,6.4697,50.2869
0.2024,0.02,0.1517,0.0552,0.383,0.0399,-0.4967,0.6709,0.3729,0.405,16.6275,6.4697,50.2869
0.1871,0.0014,0.1314,0.0584,0.3777,0.0378,-0.497,0.6714,0.3724,0.4044,16.6275,6.4697,50.2869
0.2162,-0.0154,0.1487,0.0563,0.3756,0.0389,-0.4972,0.6719,0.3719,0.4038,16.6275,6.4697,50.2869
0.1929,-0.0182,0.1598,0.0531,0.3745,0.0389,-0.4974,0.6724,0.3714,0.4032,15.2298,5.0735,51.6449
0.1923,0.0044,0.1126,0.0531,0.3756,0.0399,-0.4978,0.6727,0.3709,0.4026,15.2298,5.0735,51.6449
0.1981,-0.0254,0.1377,0.0531,0.3766,0.0399,-0.498,0.6732,0.3704,0.402,15.2298,5.0735,51.6449
0.2382,-0.0036,0.1196,0.0488,0.3734,0.0368,-0.4985,0.6742,0.3694,0.4008,15.2298,5.0735,51.6449
0.2381,0.0044,0.1227,0.0488,0.3734,0.0368,-0.4985,0.6742,0.3694,0.4008,16.6275,7.1686,51.6449
0.2147,-0.0171,0.1128,0.0467,0.3703,0.0346,-0.4986,0.6747,0.3688,0.4002,16.6275,7.1686,51.6449
0.2039,0.0072,0.1354,0.0478,0.3703,0.0314,-0.4988,0.6752,0.3683,0.3996,16.6275,7.1686,51.6449
0.2335,-0.0108,0.1525,0.0467,0.3681,0.0293,-0.4991,0.6756,0.3678,0.399,16.6275,7.1686,51.6449
0.2815,-0.0195,0.1221,0.0435,0.3649,0.0293,-0.4993,0.6761,0.3673,0.3984,15.2298,7.1686,52.3254
0.3865,-0.0358,0.0904,0.0435,0.3649,0.0293,-0.4995,0.6766,0.3667,0.3979,15.2298,7.1686,52.3254
0.4049,-0.0388,0.1003,0.0361,0.35,0.025,-0.4997,0.677,0.3662,0.3973,15.2298,7.1686,52.3254
0.4241,-0.0358,0.0594,0.0361,0.35,0.025,-0.4999,0.6774,0.3657,0.3967,15.2298,7.1686,52.3254
0.3788,-0.0473,0.0806,0.0307,0.3394,0.0229,-0.5002,0.6778,0.3653,0.3961,16.6275,6.4697,50.9659
0.3721,-0.0285,0.0667,0.0265,0.3308,0.024,-0.5004,0.6783,0.3648,0.3956,16.6275,6.4697,50.9659
0.3022,-0.0074,0.0712,0.0265,0.3223,0.0218,-0.5006,0.6787,0.3644,0.3951,16.6275,6.4697,50.9659
0.2648,-0.0293,0.0995,0.0254,0.3117,0.0208,-0.5008,0.679,0.3639,0.3945,16.6275,6.4697,50.9659
0.2619,-0.0099,0.1177,0.0254,0.3117,0.0208,-0.501,0.6794,0.3635,0.394,15.9286,5.7724,52.3254
0.2654,-0.0122,0.1116,0.0211,0.301,0.0154,-0.5013,0.6797,0.3631,0.3935,15.9286,5.7724,52.3254
0.2881,-0.0136,0.1089,0.0211,0.301,0.0154,-0.5015,0.68,0.3627,0.393,15.9286,5.7724,52.3254
0.3278,-0.0062,0.0907,0.019,0.2914,0.0122,-0.5018,0.6804,0.3623,0.3925,15.9286,5.7724,52.3254
0.3065,-0.041,0.0736,0.019,0.2914,0.0122,-0.502,0.6807,0.3619,0.392,15.9286,5.7724,51.6449
0.2527,-0.0761,0.0672,0.0169,0.2829,0.0112,-0.5022,0.681,0.3616,0.3915,15.9286,5.7724,51.6449
0.2808,-0.0862,0.0609,0.0147,0.2786,0.0122,-0.5027,0.6816,0.3608,0.3905,15.9286,5.7724,51.6449
0.2834,-0.1254,0.0056,0.0083,0.2754,0.0144,-0.5027,0.6816,0.3608,0.3905,15.9286,5.7724,51.6449
0.2753,-0.0838,0.0256,0.0094,0.2701,0.0165,-0.5029,0.6819,0.3605,0.3901,15.2298,7.1686,50.9659
0.3047,-0.0921,0.0241,0.0052,0.2627,0.0197,-0.503,0.6823,0.3601,0.3897,15.2298,7.1686,50.9659
0.3027,-0.0769,0.0014,-0.0044,0.2488,0.0272,-0.5032,0.6826,0.3598,0.3892,15.2298,7.1686,50.9659
0.2368,-0.0719,-0.003,-0.0055,0.2424,0.0293,-0.5034,0.6828,0.3595,0.3887,15.2298,7.1686,50.9659
0.2209,-0.0362,0.0329,-0.0087,0.2382,0.0304,-0.5035,0.6831,0.3592,0.3883,15.2298,6.4697,51.6449
0.2369,-0.0358,0.0407,-0.0087,0.2392,0.0261,-0.5037,0.6834,0.3589,0.3879,15.2298,6.4697,51.6449
0.2862,-0.0093,0.0526,-0.0087,0.2318,0.025,-0.5039,0.6837,0.3586,0.3874,15.2298,6.4697,51.6449
0.3113,0.0232,0.0365,-0.0087,0.2318,0.025,-0.504,0.6839,0.3584,0.387,15.2298,6.4697,51.6449
0.3398,0.0459,0.013,-0.0055,0.2201,0.0091,-0.5042,0.6842,0.3581,0.3866,15.9286,7.1686,51.6449
0.3017,0.0028,0.0363,-0.0023,0.2137,-0.0005,-0.5042,0.6845,0.3578,0.3862,15.9286,7.1686,51.6449
0.3232,0.0109,0.0904,-0.0023,0.2137,-0.0005,-0.5044,0.6847,0.3575,0.3858,15.9286,7.1686,51.6449
0.2989,-0.0295,0.0351,-0.0002,0.2062,-0.008,-0.5046,0.6849,0.3572,0.3855,15.9286,7.1686,51.6449
0.3066,-0.0759,0.0217,0.0009,0.2009,-0.0112,-0.5048,0.6851,0.357,0.3852,14.5325,5.7724,53.685
0.3164,-0.1234,0.0599,-0.0002,0.1945,-0.0101,-0.5051,0.6853,0.3567,0.3848,14.5325,5.7724,53.685
0.3167,-0.1344,0.0393,-0.0034,0.186,-0.0091,-0.5053,0.6854,0.3565,0.3845,14.5325,5.7724,53.685
0.3263,-0.1791,0.0476,-0.0108,0.1657,-0.0005,-0.5055,0.6856,0.3562,0.3842,14.5325,5.7724,53.685
0.3613,-0.2246,0.0562,-0.0108,0.1657,-0.0005,-0.5057,0.6857,0.356,0.3839,15.2298,7.1686,53.0045
0.3532,-0.1743,0.0634,-0.0151,0.1551,0.0101,-0.5057,0.6859,0.3558,0.3836,15.2298,7.1686,53.0045
0.3546,-0.2045,0.0637,-0.0204,0.1455,0.0165,-0.5058,0.6861,0.3556,0.3833,15.2298,7.1686,53.0045
0.3198,-0.1757,0.0406,-0.0257,0.1316,0.0229,-0.506,0.6862,0.3555,0.383,15.2298,7.1686,53.0045
0.2822,-0.1444,0.0551,-0.0279,0.1231,0.0261,-0.5061,0.6863,0.3554,0.3828,15.2298,7.1686,53.0045
0.2023,-0.0619,0.069,-0.0289,0.1146,0.0368,-0.5062,0.6864,0.3554,0.3825,13.8336,5.7724,52.3254
0.1596,-0.0505,0.109,-0.0289,0.1146,0.0368,-0.5063,0.6866,0.3553,0.3822,13.8336,5.7724,52.3254
0.1359,-0.0269,0.111,-0.0311,0.1125,0.0389,-0.5063,0.6867,0.3553,0.3819,13.8336,5.7724,52.3254
0.1636,-0.0145,0.1092,-0.0332,0.1125,0.0378,-0.5064,0.6868,0.3552,0.3817,16.6275,6.4697,52.3254
0.1928,-0.0086,0.1416,-0.0321,0.1093,0.0325,-0.5064,0.687,0.3551,0.3815,16.6275,6.4697,52.3254
0.195,0.0234,0.1462,-0.0311,0.1082,0.0282,-0.5064,0.6871,0.3551,0.3812,16.6275,6.4697,52.3254
0.1412,-0.0109,0.1482,-0.0311,0.1082,0.0282,-0.5065,0.6872,0.355,0.381,16.6275,6.4697,52.3254
0.0537,-0.0192,0.1203,-0.0311,0.1125,0.0176,-0.5066,0.6873,0.355,0.3807,14.5325,5.0735,51.6449
0.0334,-0.0334,0.1073,-0.03,0.1199,0.0154,-0.5067,0.6874,0.355,0.3805,14.5325,5.0735,51.6449
0.0138,-0.0108,0.1211,-0.0289,0.1252,0.0154,-0.5069,0.6874,0.3549,0.3802,14.5325,5.0735,51.6449
0.0219,-0.0374,0.1394,-0.0289,0.1252,0.0154,-0.507,0.6875,0.3548,0.38,14.5325,5.0735,51.6449
0.0146,-0.0779,0.1216,-0.0343,0.1359,0.0186,-0.5071,0.6876,0.3548,0.3797,13.8336,6.4697,53.0045
0.0672,-0.0822,0.1068,-0.0353,0.1402,0.0186,-0.5072,0.6877,0.3547,0.3795,13.8336,6.4697,53.0045
0.1146,-0.0792,0.0567,-0.0375,0.1402,0.0218,-0.5073,0.6878,0.3546,0.3792,13.8336,6.4697,53.0045
0.1308,-0.0485,0.0822,-0.0396,0.1359,0.024,-0.5075,0.6879,0.3545,0.3789,13.8336,6.4697,53.0045
0.1618,-0.0666,0.0964,-0.0396,0.1359,0.024,-0.5076,0.688,0.3544,0.3786,15.2298,5.0735,52.3254
0.1632,-0.0181,0.0775,-0.0417,0.1327,0.0272,-0.5078,0.6881,0.3543,0.3783,15.2298,5.0735,52.3254
0.137,0.0046,0.1316,-0.0396,0.1306,0.0304,-0.5079,0.6882,0.3543,0.378,15.2298,5.0735,52.3254
0.2164,0.0472,0.1023,-0.0353,0.1263,0.0314,-0.508,0.6884,0.3542,0.3777,15.2298,5.0735,52.3254
0.2665,0.0948,0.096,-0.0321,0.121,0.0304,-0.5081,0.6885,0.3542,0.3774,14.5325,7.1686,52.3254
0.3288,0.0806,0.091,-0.0321,0.121,0.0304,-0.5079,0.6888,0.354,0.3772,14.5325,7.1686,52.3254
0.3097,0.0765,0.0867,-0.0247,0.1103,0.024,-0.508,0.689,0.3539,0.3769,14.5325,7.1686,52.3254
0.2917,0.0923,0.0617,-0.0247,0.1103,0.024,-0.508,0.6891,0.3539,0.3766,14.5325,7.1686,52.3254
0.1971,0.0773,0.031,-0.0172,0.0965,0.0154,-0.508,0.6893,0.3538,0.3764,13.1348,5.7724,53.0045
0.0969,0.0815,0.0263,-0.0076,0.0869,0.0133,-0.5081,0.6894,0.3537,0.3761,13.1348,5.7724,53.0045
-0.0023,0.06,0.0453,-0.0034,0.0922,0.0186,-0.5081,0.6895,0.3536,0.3759,13.1348,5.7724,53.0045
-0.0434,0.0434,-0.0322,0.0009,0.1018,0.0218,-0.5081,0.6896,0.3535,0.3758,13.1348,5.7724,53.0045
-0.0089,0.0135,-0.0109,0.0041,0.1061,0.0261,-0.5082,0.6898,0.3534,0.3756,13.8336,5.7724,51.6449
0.0425,0.0462,-0.0209,0.002,0.1071,0.0304,-0.5082,0.6901,0.3532,0.3751,13.8336,5.7724,51.6449
0.1097,0.0103,-0.0162,0.002,0.1082,0.0325,-0.5082,0.6901,0.3532,0.3751,13.8336,5.7724,51.6449
0.1925,0.0226,-0.0121,0.0052,0.105,0.0314,-0.5083,0.6903,0.3531,0.3749,13.8336,5.7724,51.6449
0.2917,0.0287,-0.0381,0.0052,0.0997,0.0293,-0.5083,0.6904,0.3529,0.3747,14.5325,7.1686,53.685
0.3383,0.0598,-0.0156,0.0052,0.0911,0.025,-0.5081,0.6907,0.3527,0.3745,14.5325,7.1686,53.685
0.3491,0.0271,-0.0097,0.0052,0.0911,0.025,-0.5081,0.6909,0.3526,0.3743,14.5325,7.1686,53.685
0.292,0.0554,-0.0118,0.0116,0.0773,0.0186,-0.5082,0.6911,0.3524,0.3741,14.5325,7.1686,53.685
0.235,0.019,-0.0251,0.0126,0.0698,0.0197,-0.5082,0.6913,0.3523,0.3739,14.5325,6.4697,53.0045
0.2337,-0.0127,-0.0512,0.0126,0.0698,0.0197,-0.5081,0.6915,0.3521,0.3738,14.5325,6.4697,53.0045
0.1903,-0.0159,-0.0751,0.0169,0.0667,0.0154,-0.5081,0.6916,0.352,0.3736,14.5325,6.4697,53.0045
0.2261,-0.0265,-0.1083,0.0126,0.0603,0.0154,-0.5081,0.6917,0.3519,0.3735,14.5325,6.4697,53.0045
0.2186,-0.0718,-0.133,0.0105,0.056,0.0144,-0.5082,0.6919,0.3517,0.3733,15.2298,6.4697,53.0045
0.2812,-0.0247,-0.103,0.0105,0.056,0.0144,-0.5081,0.6921,0.3515,0.3732,15.2298,6.4697,53.0045
0.2691,-0.0521,-0.1053,0.0041,0.0421,0.0112,-0.5081,0.6922,0.3514,0.3731,15.2298,6.4697,53.0045
0.2506,-0.0618,-0.1138,0.0041,0.0421,0.0112,-0.5082,0.6923,0.3513,0.373,15.2298,6.4697,53.0045
0.2043,-0.0584,-0.1368,-0.0055,0.0315,0.0144,-0.5082,0.6924,0.3512,0.3728,13.1348,6.4697,52.3254
0.2199,-0.0573,-0.1023,-0.0076,0.0294,0.0144,-0.5082,0.6925,0.3511,0.3728,13.1348,6.4697,52.3254
0.2486,-0.0306,-0.1005,-0.0087,0.023,0.0133,-0.5082,0.6926,0.351,0.3726,13.1348,6.4697,52.3254
0.2954,-0.0449,-0.0957,-0.0087,0.023,0.0133,-0.5082,0.6926,0.3509,0.3725,13.1348,6.4697,52.3254
0.3351,-0.0485,-0.1285,-0.013,0.0166,0.0133,-0.5083,0.6927,0.3509,0.3724,13.8336,5.7724,53.0045
0.3385,-0.0135,-0.0786,-0.0161,0.0081,0.0144,-0.5083,0.6928,0.3509,0.3723,13.8336,5.7724,53.0045
0.353,-0.0151,-0.1097,-0.0236,-0.009,0.0112,-0.5083,0.6928,0.3508,0.3722,13.8336,5.7724,53.0045
0.3385,-0.0098,-0.0413,-0.0236,-0.009,0.0112,-0.5083,0.6929,0.3508,0.3721,13.8336,5.7724,53.0045
0.3253,0.0689,-0.0297,-0.0257,-0.0154,0.0101,-0.5083,0.6929,0.3509,0.3721,12.4374,6.4697,53.0045
0.3046,0.0928,-0.0219,-0.0257,-0.0324,0.0048,-0.5082,0.693,0.3509,0.372,12.4374,6.4697,53.0045
0.3404,0.0576,-0.0434,-0.0225,-0.0399,0.0059,-0.5082,0.693,0.351,0.372,12.4374,6.4697,53.0045
0.3304,0.0851,-0.0136,-0.0225,-0.0399,0.0059,-0.5081,0.693,0.351,0.372,12.4374,6.4697,53.0045
0.3253,0.0841,-0.0082,-0.0204,-0.0505,0.0016,-0.508,0.693,0.3511,0.372,13.8336,7.8674,52.3254
0.3045,0.0956,-0.0175,-0.0183,-0.059,-0.0027,-0.5077,0.6932,0.351,0.3721,13.8336,7.8674,52.3254
0.239,0.0639,0.0174,-0.0172,-0.0633,-0.0048,-0.5076,0.6932,0.3511,0.3722,13.8336,7.8674,52.3254
0.2155,0.0744,0.0287,-0.014,-0.0772,-0.008,-0.5076,0.6931,0.3512,0.3723,13.8336,7.8674,52.3254
0.1764,0.0745,0.0225,-0.014,-0.0793,-0.0101,-0.5075,0.6931,0.3513,0.3723,13.1348,7.1686,53.0045
0.1606,0.0388,0.0071,-0.014,-0.0793,-0.0101,-0.5073,0.6931,0.3514,0.3725,13.1348,7.1686,53.0045
0.1539,0.0382,0.0466,-0.013,-0.0814,-0.0069,-0.5072,0.6931,0.3515,0.3726,13.1348,7.1686,53.0045
0.1753,0.0695,0.0769,-0.013,-0.0846,-0.008,-0.5072,0.693,0.3516,0.3728,13.1348,7.1686,53.0045
0.1663,0.0621,0.0446,-0.013,-0.0931,-0.008,-0.5071,0.6929,0.3517,0.3729,14.5325,5.0735,52.3254
0.1002,0.0531,0.0197,-0.013,-0.0931,-0.008,-0.507,0.6928,0.3519,0.373,14.5325,5.0735,52.3254
-0.0211,0.0815,0.1009,-0.0087,-0.0985,-0.0069,-0.5069,0.6927,0.352,0.3731,14.5325,5.0735,52.3254
-0.1247,0.0962,0.1504,-0.0087,-0.0985,-0.0069,-0.5068,0.6926,0.3522,0.3733,14.5325,5.0735,52.3254
-0.1264,0.0668,0.1746,-0.0034,-0.091,-0.0069,-0.5067,0.6925,0.3524,0.3735,13.8336,6.4697,53.0045
-0.049,0.1024,0.1094,0.0009,-0.0825,-0.0037,-0.5065,0.6924,0.3525,0.3738,13.8336,6.4697,53.0045
-0.0205,0.117,0.1576,0.0041,-0.0793,-0.0059,-0.5064,0.6924,0.3526,0.3739,13.8336,6.4697,53.0045
0.0005,0.1008,0.166,0.0041,-0.0761,-0.0091,-0.5063,0.6923,0.3528,0.3741,13.8336,6.4697,53.0045
0.0228,0.0738,0.1204,0.0083,-0.0761,-0.0091,-0.5062,0.6922,0.3529,0.3743,13.1348,6.4697,53.685
-0.0171,0.0676,0.182,0.0105,-0.0761,-0.0091,-0.506,0.6922,0.353,0.3744,13.1348,6.4697,53.685
-0.0529,0.019,0.1818,0.0105,-0.0761,-0.0091,-0.5059,0.6921,0.3531,0.3746,13.1348,6.4697,53.685
-0.0416,0.0182,0.1705,0.0116,-0.0718,-0.008,-0.5059,0.692,0.3533,0.3748,13.1348,6.4697,53.685
-0.0176,0.0009,0.1603,0.0116,-0.0686,-0.0059,-0.5058,0.6919,0.3534,0.375,15.2298,7.8674,53.0045
-0.0329,-0.011,0.1763,0.0116,-0.0729,-0.0037,-0.5055,0.692,0.3533,0.3753,15.2298,7.8674,53.0045
-0.0713,-0.0143,0.1781,0.0116,-0.074,0.0005,-0.5054,0.6919,0.3535,0.3755,15.2298,7.8674,53.0045
-0.0889,0.0067,0.1715,0.0116,-0.074,0.0016,-0.5053,0.6918,0.3536,0.3757,15.2298,7.8674,53.0045
-0.118,-0.0022,0.1205,0.0105,-0.0697,0.0037,-0.505,0.6916,0.3538,0.3761,13.8336,6.4697,51.6449
-0.1117,-0.0044,0.1714,0.0094,-0.0633,0.0027,-0.505,0.6916,0.3538,0.3761,13.8336,6.4697,51.6449
-0.1249,0.0032,0.2208,0.0094,-0.0633,0.0027,-0.5049,0.6915,0.3539,0.3762,13.8336,6.4697,51.6449
-0.1163,-0.014,0.1778,0.0094,-0.0537,-0.0016,-0.5049,0.6914,0.354,0.3764,13.8336,6.4697,51.6449
-0.1575,-0.0264,0.1842,0.0105,-0.0505,0.0005,-0.5048,0.6913,0.3541,0.3766,13.8336,6.4697,52.3254
-0.1273,0.0016,0.2036,0.0105,-0.0505,0.0005,-0.5047,0.6913,0.3542,0.3768,13.8336,6.4697,52.3254
-0.122,-0.04,0.2357,0.0105,-0.042,0.0005,-0.5046,0.6912,0.3543,0.3769,13.8336,6.4697,52.3254
-0.0916,-0.0439,0.1958,0.0062,-0.0356,-0.0027,-0.5046,0.6912,0.3543,0.377,13.8336,6.4697,52.3254
-0.1302,-0.0256,0.1944,0.0062,-0.0303,-0.0037,-0.5046,0.6912,0.3543,0.3771,13.1348,5.7724,53.0045
-0.1554,-0.0489,0.2349,0.0073,-0.0228,-0.0016,-0.5046,0.6911,0.3544,0.3771,13.1348,5.7724,53.0045
-0.1852,-0.0456,0.2193,0.0105,-0.0143,0.0005,-0.5046,0.691,0.3544,0.3772,13.1348,5.7724,53.0045
-0.1749,-0.0653,0.2356,0.0105,-0.0143,0.0005,-0.5045,0.691,0.3544,0.3772,13.1348,5.7724,53.0045
-0.1378,-0.0675,0.2224,0.0105,-0.0079,0.0016,-0.5045,0.691,0.3545,0.3773,13.1348,6.4697,53.0045
-0.1027,-0.0773,0.1926,0.0094,-0.0005,0.0027,-0.5045,0.691,0.3544,0.3773,13.1348,6.4697,53.0045
-0.0459,-0.0421,0.2513,0.0094,0.0049,0.0059,-0.5045,0.691,0.3544,0.3773,13.1348,6.4697,53.0045
0.004,-0.0418,0.2247,0.0073,0.0017,0.0048,-0.5044,0.691,0.3544,0.3773,13.1348,6.4697,53.0045
0.0802,-0.0371,0.2138,0.0073,-0.0015,0.0069,-0.5044,0.691,0.3544,0.3774,15.2298,6.4697,50.9659
0.0885,-0.0816,0.2326,0.0073,-0.0015,0.0069,-0.5043,0.6911,0.3544,0.3774,15.2298,6.4697,50.9659
0.0826,-0.072,0.2239,0.0062,-0.0047,0.0112,-0.5043,0.6911,0.3544,0.3774,15.2298,6.4697,50.9659
0.1012,-0.0601,0.2396,0.0083,-0.0154,0.0154,-0.5042,0.6911,0.3544,0.3775,15.2298,6.4697,50.9659
0.0001,-0.0586,0.233,0.0137,-0.0175,0.0176,-0.5042,0.6911,0.3544,0.3775,13.1348,5.0735,51.6449
-0.0524,-0.0339,0.2125,0.0179,-0.0196,0.0186,-0.5042,0.691,0.3545,0.3775,13.1348,5.0735,51.6449
-0.0876,-0.0164,0.2247,0.019,-0.0154,0.0154,-0.5042,0.691,0.3546,0.3776,13.1348,5.0735,51.6449
-0.1229,-0.0493,0.1996,0.019,-0.0154,0.0154,-0.5041,0.6909,0.3547,0.3777,13.1348,5.0735,51.6449
-0.0885,-0.0679,0.2042,0.019,-0.0079,0.0112,-0.5041,0.6909,0.3547,0.3778,13.1348,6.4697,53.0045
-0.1046,-0.087,0.1673,0.0169,-0.0068,0.0112,-0.504,0.6909,0.3547,0.3779,13.1348,6.4697,53.0045
-0.1179,-0.0788,0.1708,0.0158,-0.0047,0.0122,-0.504,0.6908,0.3548,0.378,13.1348,6.4697,53.0045
-0.1244,-0.0891,0.2146,0.0158,-0.0047,0.0122,-0.504,0.6908,0.3548,0.3781,13.1348,6.4697,53.0045
-0.1088,-0.1139,0.1994,0.0137,0.0017,0.0144,-0.504,0.6907,0.3548,0.3782,13.1348,7.8674,54.364
-0.0624,-0.0699,0.1801,0.0105,0.0027,0.024,-0.5038,0.6908,0.3548,0.3783,13.1348,7.8674,54.364
-0.0511,-0.0538,0.1545,0.0105,0.0027,0.024,-0.5038,0.6908,0.3548,0.3783,13.1348,7.8674,54.364
-0.1217,-0.0433,0.1741,0.0126,0.007,0.0346,-0.5037,0.6908,0.3549,0.3784,13.1348,7.8674,54.364
-0.1588,-0.001,0.2308,0.0126,0.007,0.0346,-0.5037,0.6908,0.3549,0.3784,13.8336,5.7724,53.0045
-0.1834,-0.0077,0.2132,0.0179,0.0198,0.041,-0.5036,0.6908,0.355,0.3784,13.8336,5.7724,53.0045
-0.1088,0.0421,0.2136,0.0179,0.0198,0.041,-0.5035,0.6908,0.3551,0.3784,13.8336,5.7724,53.0045
0.0142,0.0383,0.1988,0.0211,0.0251,0.0399,-0.5034,0.6908,0.3551,0.3784,13.8336,5.7724,53.0045
0.0616,0.0685,0.2142,0.0254,0.0262,0.0336,-0.5033,0.6909,0.3551,0.3784,13.8336,5.7724,53.0045
0.094,0.0344,0.2126,0.0275,0.0219,0.0272,-0.5033,0.691,0.3552,0.3784,13.8336,5.7724,53.0045
0.0549,0.024,0.1766,0.0297,0.0198,0.0229,-0.5032,0.691,0.3552,0.3784,13.8336,5.7724,53.0045
0.0106,0.0274,0.2164,0.0329,0.0176,0.0165,-0.5031,0.6911,0.3551,0.3784,13.8336,5.7724,53.0045
0.0246,-0.0375,0.1996,0.0329,0.0176,0.0165,-0.503,0.6911,0.3551,0.3784,15.2298,6.4697,51.6449
0.0258,-0.0588,0.1585,0.0361,0.0176,0.0048,-0.5029,0.6912,0.355,0.3786,15.2298,6.4697,51.6449
0.0208,-0.0971,0.1186,0.0361,0.0176,0.0048,-0.5029,0.6912,0.355,0.3786,15.2298,6.4697,51.6449
0.0384,-0.0887,0.1324,0.0361,0.0145,0.0037,-0.5029,0.6912,0.3549,0.3787,15.2298,6.4697,51.6449
0.0475,-0.1444,0.1708,0.0307,0.0038,0.0101,-0.5029,0.6912,0.3549,0.3787,13.1348,6.4697,53.0045
0.0128,-0.1121,0.1192,0.0307,0.0038,0.0101,-0.5029,0.6912,0.3548,0.3787,13.1348,6.4697,53.0045
-0.0382,-0.1362,0.1499,0.0275,0.0027,0.0154,-0.5029,0.6912,0.3548,0.3788,13.1348,6.4697,53.0045
-0.053,-0.1417,0.1407,0.0233,0.0027,0.0218,-0.5029,0.6912,0.3548,0.3789,13.1348,6.4697,53.0045
-0.0702,-0.1337,0.1774,0.019,0.0091,0.0314,-0.5028,0.6912,0.3548,0.3789,13.1348,6.4697,51.6449
-0.0627,-0.0927,0.1499,0.019,0.0091,0.0314,-0.5028,0.6912,0.3548,0.379,13.1348,6.4697,51.6449
0.0015,-0.0873,0.1589,0.0179,0.0134,0.0325,-0.5027,0.6912,0.3548,0.379,13.1348,6.4697,51.6449
0.0137,-0.0655,0.1229,0.0158,0.0145,0.0314,-0.5027,0.6912,0.3548,0.379,13.1348,6.4697,51.6449
0.0609,-0.0316,0.137,0.0083,0.0113,0.0336,-0.5027,0.6912,0.3548,0.379,12.4374,7.1686,53.0045
0.0729,-0.0627,0.1522,0.0052,0.007,0.0293,-0.5026,0.6913,0.3548,0.379,12.4374,7.1686,53.0045
0.0835,-0.0315,0.1611,0.0062,0.0059,0.0272,-0.5025,0.6913,0.3549,0.379,12.4374,7.1686,53.0045
0.076,-0.0412,0.1529,0.0052,0.0059,0.0261,-0.5025,0.6913,0.3549,0.379,12.4374,7.1686,53.0045
0.052,-0.0122,0.1361,0.0041,0.0049,0.0186,-0.5024,0.6913,0.3549,0.379,13.8336,6.4697,53.0045
0.0649,-0.0367,0.136,0.0041,0.0049,0.0186,-0.5024,0.6914,0.3549,0.379,13.8336,6.4697,53.0045
0.0847,-0.0207,0.1097,-0.0023,0.007,0.0112,-0.5023,0.6914,0.3549,0.379,13.8336,6.4697,53.0045
0.0529,-0.0378,0.1206,-0.0023,0.007,0.0112,-0.5023,0.6914,0.355,0.379,13.8336,6.4697,53.0045
0.0732,-0.0094,0.1143,-0.0055,0.0038,0.0005,-0.5023,0.6914,0.355,0.379,13.1348,4.3747,53.685
0.0678,-0.0408,0.0977,-0.0066,0.0027,-0.0027,-0.5025,0.6912,0.3551,0.3789,13.1348,4.3747,53.685
0.0274,-0.0153,0.0637,-0.0108,0.0017,-0.0048,-0.5025,0.6912,0.3551,0.3789,13.1348,4.3747,53.685
-0.0016,-0.051,0.1193,-0.0151,0.0027,-0.0091,-0.5025,0.6912,0.3551,0.3789,13.1348,4.3747,53.685
-0.0154,-0.052,0.0972,-0.0172,0.0091,-0.0112,-0.5025,0.6912,0.3552,0.379,13.1348,7.1686,52.3254
-0.0483,-0.0159,0.0887,-0.0172,0.0091,-0.0112,-0.5025,0.6912,0.3551,0.379,13.1348,7.1686,52.3254
-0.04,-0.0089,0.1198,-0.0225,0.0059,-0.0133,-0.5025,0.6912,0.3551,0.3791,13.1348,7.1686,52.3254
-0.0558,-0.0162,0.0945,-0.0225,0.0059,-0.0133,-0.5025,0.6912,0.3551,0.3791,13.1348,7.1686,52.3254
-0.0561,0.0207,0.116,-0.0215,0.0091,-0.0122,-0.5025,0.6911,0.3552,0.3791,12.4374,5.7724,51.6449
-0.0586,-0.0083,0.094,-0.0215,0.0102,-0.0101,-0.5025,0.6911,0.3552,0.3791,12.4374,5.7724,51.6449
-0.0248,0.0063,0.135,-0.0151,0.0134,-0.0091,-0.5025,0.6911,0.3552,0.3791,12.4374,5.7724,51.6449
-0.0035,0.0271,0.1078,-0.0151,0.0134,-0.0091,-0.5025,0.6911,0.3552,0.3791,12.4374,5.7724,51.6449
-0.0154,0.0338,0.0994,-0.0151,0.0166,-0.0091,-0.5025,0.6911,0.3553,0.3791,14.5325,6.4697,53.0045
-0.022,0.011,0.1045,-0.014,0.0145,-0.0101,-0.5024,0.6911,0.3552,0.3792,14.5325,6.4697,53.0045
-0.0129,0.0359,0.0923,-0.014,0.0145,-0.0154,-0.5024,0.6911,0.3552,0.3792,14.5325,6.4697,53.0045
-0.062,0.0071,0.0838,-0.014,0.0145,-0.0154,-0.5024,0.6911,0.3552,0.3792,14.5325,6.4697,53.0045
-0.0879,0.0564,0.0877,-0.013,0.0145,-0.0144,-0.5024,0.6911,0.3552,0.3792,14.5325,5.7724,52.3254
-0.0491,0.0287,0.1138,-0.0087,0.024,-0.0133,-0.5025,0.691,0.3553,0.3792,14.5325,5.7724,52.3254
-0.0171,0.0591,0.0375,-0.0087,0.024,-0.0133,-0.5025,0.691,0.3553,0.3792,14.5325,5.7724,52.3254
0.0207,0.0583,0.0644,-0.0108,0.0187,-0.0133,-0.5025,0.6911,0.3552,0.3792,14.5325,5.7724,52.3254
0.0151,0.0087,0.1127,-0.0108,0.0187,-0.0133,-0.5025,0.6911,0.3552,0.3791,12.4374,6.4697,53.0045
-0.0239,0.0716,0.0754,-0.0044,0.0176,-0.0122,-0.5025,0.6911,0.3552,0.3791,12.4374,6.4697,53.0045
0.0008,0.0686,0.0969,-0.0023,0.0166,-0.0091,-0.5025,0.6911,0.3552,0.3791,12.4374,6.4697,53.0045
-0.0044,0.064,0.0404,0.002,0.0219,-0.0091,-0.5025,0.6911,0.3552,0.3791,12.4374,6.4697,53.0045
-0.006,0.0498,0.1212,0.0041,0.023,-0.0101,-0.5025,0.6911,0.3552,0.3791,14.5325,6.4697,52.3254
0.001,0.037,0.0749,0.0052,0.0219,-0.0122,-0.5024,0.6912,0.3552,0.3791,14.5325,6.4697,52.3254
-0.0383,0.0413,0.0459,0.0052,0.0219,-0.0122,-0.5024,0.6912,0.3551,0.3791,14.5325,6.4697,52.3254
-0.0302,0.0238,0.0624,0.0094,0.0262,-0.0101,-0.5024,0.6912,0.3551,0.3791,14.5325,6.4697,52.3254
-0.0516,0.0117,0.0397,0.0094,0.0262,-0.0091,-0.5025,0.6912,0.3551,0.3791,13.1348,6.4697,53.685
-0.0728,0.016,0.0623,0.0073,0.0272,-0.0069,-0.5025,0.6912,0.355,0.3791,13.1348,6.4697,53.685
-0.1115,0.0477,0.0748,0.0083,0.0326,-0.0059,-0.5025,0.6912,0.355,0.3791,13.1348,6.4697,53.685
-0.1147,0.0485,0.0753,0.0116,0.039,-0.008,-0.5025,0.6912,0.355,0.379,13.1348,6.4697,53.685
-0.0961,0.0936,0.057,0.0105,0.0475,-0.0091,-0.5026,0.6912,0.355,0.379,12.4374,6.4697,51.6449
-0.0993,0.0968,0.0606,0.0105,0.0507,-0.0101,-0.5025,0.6913,0.3549,0.379,12.4374,6.4697,51.6449
-0.0588,0.0681,0.0543,0.0105,0.0507,-0.0101,-0.5026,0.6913,0.3549,0.3789,12.4374,6.4697,51.6449
-0.0281,0.063,0.0964,0.0169,0.056,-0.0133,-0.5026,0.6914,0.3548,0.3789,12.4374,6.4697,51.6449
-0.007,0.0885,0.0788,0.0201,0.0603,-0.0144,-0.5026,0.6914,0.3547,0.3788,12.4374,6.4697,54.364
0.0211,0.0198,0.0736,0.0222,0.0603,-0.0133,-0.5027,0.6914,0.3546,0.3787,12.4374,6.4697,54.364
0.0573,-0.028,0.0645,0.0275,0.0624,-0.0122,-0.5028,0.6915,0.3545,0.3787,12.4374,6.4697,54.364
0.0933,-0.0894,0.0256,0.0254,0.0549,-0.0091,-0.5029,0.6915,0.3544,0.3786,12.4374,6.4697,54.364
0.1203,-0.0725,0.015,0.0254,0.0549,-0.0091,-0.503,0.6915,0.3543,0.3785,15.2298,7.1686,54.364
0.0657,-0.1291,0.0035,0.0233,0.0464,-0.0037,-0.5029,0.6917,0.3541,0.3785,15.2298,7.1686,54.364
0.0422,-0.1091,0.025,0.019,0.0421,0.0016,-0.503,0.6917,0.354,0.3785,15.2298,7.1686,54.364
0.0225,-0.0776,0.0156,0.0094,0.04,0.0112,-0.5031,0.6917,0.3539,0.3784,15.2298,7.1686,54.364
0.0258,-0.0625,0.0039,0.0073,0.039,0.0133,-0.5031,0.6917,0.3539,0.3783,15.2298,7.1686,53.685
-0.0185,-0.0876,0.0255,0.0073,0.039,0.0122,-0.503,0.6919,0.3537,0.3784,15.2298,7.1686,53.685
-0.117,-0.0145,0.0366,0.0126,0.0411,0.0154,-0.503,0.6919,0.3537,0.3783,15.2298,7.1686,53.685
-0.1125,-0.0313,0.068,0.0147,0.0496,0.0144,-0.503,0.692,0.3536,0.3783,15.2298,7.1686,53.685
-0.1489,0.0247,0.079,0.0179,0.0592,0.0091,-0.503,0.692,0.3536,0.3782,13.1348,6.4697,53.685
-0.0824,0.0109,0.0338,0.0201,0.0645,0.0037,-0.5031,0.6921,0.3535,0.3782,13.1348,6.4697,53.685
-0.0132,-0.0014,0.0232,0.019,0.0677,-0.0037,-0.5031,0.6921,0.3534,0.3781,13.1348,6.4697,53.685
0.0064,-0.0259,0.0297,0.0169,0.0688,-0.008,-0.5031,0.6922,0.3533,0.378,13.1348,6.4697,53.685
0.0455,-0.0536,0.0156,0.0158,0.0667,-0.0112,-0.5032,0.6923,0.3532,0.3779,14.5325,5.7724,52.3254
-0.0116,-0.093,0.001,0.0126,0.0688,-0.0112,-0.5033,0.6923,0.3531,0.3778,14.5325,5.7724,52.3254
-0.0517,-0.1555,0.0225,0.0126,0.0688,-0.0112,-0.5034,0.6923,0.3529,0.3777,14.5325,5.7724,52.3254
-0.0241,-0.1311,0.0054,0.0137,0.0698,-0.0048,-0.5035,0.6923,0.3528,0.3777,14.5325,5.7724,52.3254
0.0465,-0.1631,-0.0176,0.0105,0.0709,0.0091,-0.5036,0.6924,0.3527,0.3776,13.1348,7.1686,53.685
0.1546,-0.1652,-0.0116,0.0105,0.0709,0.0091,-0.5037,0.6925,0.3525,0.3775,13.1348,7.1686,53.685
0.1869,-0.1804,-0.0197,0.0041,0.056,0.0197,-0.5038,0.6926,0.3524,0.3774,13.1348,7.1686,53.685
0.1877,-0.1348,-0.0519,-0.0012,0.0475,0.024,-0.5038,0.6926,0.3523,0.3773,13.1348,7.1686,53.685
0.2097,-0.1177,0.0119,-0.0012,0.0475,0.024,-0.5039,0.6927,0.3522,0.3771,13.8336,7.1686,53.685
0.1852,-0.1515,-0.0228,-0.0055,0.0304,0.025,-0.5039,0.6928,0.352,0.377,13.8336,7.1686,53.685
0.1351,-0.0616,-0.0383,-0.0087,0.0272,0.025,-0.5039,0.6928,0.352,0.377,13.8336,7.1686,53.685
0.0297,-0.0641,-0.037,-0.0087,0.0272,0.025,-0.5039,0.6929,0.352,0.3769,13.8336,7.1686,53.685
0.0121,-0.0432,-0.0394,-0.0119,0.0251,0.0229,-0.5039,0.6929,0.352,0.3768,13.8336,6.4697,52.3254
0.0128,-0.0241,-0.0378,-0.0151,0.0262,0.0208,-0.5039,0.693,0.352,0.3767,13.8336,6.4697,52.3254
0.0722,-0.0337,-0.0376,-0.0161,0.0262,0.0176,-0.5039,0.693,0.352,0.3766,13.8336,6.4697,52.3254
0.057,-0.0194,-0.0823,-0.0183,0.0262,0.0165,-0.504,0.6931,0.352,0.3765,13.8336,6.4697,52.3254
-0.0028,0.024,-0.0304,-0.0225,0.0251,0.0133,-0.504,0.6931,0.3519,0.3764,12.4374,6.4697,52.3254
-0.0589,-0.0118,-0.0058,-0.0225,0.0219,0.0101,-0.504,0.6931,0.352,0.3764,12.4374,6.4697,52.3254
-0.0635,-0.0048,0.0147,-0.0225,0.023,0.008,-0.504,0.6931,0.352,0.3763,12.4374,6.4697,52.3254
-0.0303,0.0591,0.0236,-0.0193,0.0283,0.0091,-0.5041,0.6932,0.352,0.3762,12.4374,6.4697,52.3254
0.0733,0.0049,0.0518,-0.0172,0.0315,0.0101,-0.5041,0.6932,0.352,0.3761,13.8336,7.8674,52.3254
0.1729,0.0432,-0.0146,-0.0161,0.0358,0.0112,-0.5039,0.6934,0.3519,0.3761,13.8336,7.8674,52.3254
0.2009,0.0498,0.0356,-0.0161,0.039,0.0112,-0.5039,0.6934,0.3519,0.376,13.8336,7.8674,52.3254
0.2081,0.0411,0.0045,-0.0119,0.0251,0.0069,-0.5039,0.6935,0.3519,0.3759,13.8336,7.8674,52.3254
0.153,0.0079,0.0231,-0.013,0.0208,0.0037,-0.5039,0.6936,0.3518,0.3758,13.1348,6.4697,53.685
0.1457,0.027,-0.0172,-0.014,0.0145,0.0027,-0.5039,0.6936,0.3518,0.3757,13.1348,6.4697,53.685
0.0971,0.039,-0.0285,-0.014,0.0145,0.0027,-0.5039,0.6936,0.3518,0.3757,13.1348,6.4697,53.685
0.0317,0.025,0.0235,-0.013,0.0091,0.0059,-0.5039,0.6937,0.3518,0.3756,13.1348,6.4697,53.685
0.0023,0.0032,-0.0088,-0.0087,-0.0005,0.0133,-0.5039,0.6937,0.3519,0.3756,13.8336,6.4697,53.0045
-0.0521,0.0612,-0.0494,-0.0076,0.0006,0.0133,-0.5039,0.6937,0.3519,0.3756,13.8336,6.4697,53.0045
-0.1157,0.0392,-0.0254,-0.0076,0.0006,0.0133,-0.5038,0.6938,0.3519,0.3755,13.8336,6.4697,53.0045
-0.1142,0.0651,-0.0202,-0.0034,0.0049,0.0133,-0.5038,0.6938,0.3519,0.3755,13.8336,6.4697,53.0045
-0.0714,0.06,0.0088,-0.0002,0.0145,0.0091,-0.5038,0.6938,0.3519,0.3755,11.7386,6.4697,52.3254
0.0225,0.0907,-0.0099,0.0041,0.0166,0.008,-0.5037,0.6938,0.3519,0.3755,11.7386,6.4697,52.3254
0.1351,0.0516,0.0482,0.0073,0.0091,0.0048,-0.5037,0.6939,0.3519,0.3754,11.7386,6.4697,52.3254
0.2073,0.0532,0.0382,0.0073,0.0091,0.0048,-0.5037,0.694,0.3519,0.3754,11.7386,6.4697,52.3254
0.2633,0.0299,0.0594,0.0094,-0.0058,-0.0037,-0.5036,0.694,0.3519,0.3754,13.1348,5.7724,53.685
0.256,0.0392,0.0561,0.0094,-0.0058,-0.0037,-0.5037,0.694,0.3519,0.3753,13.1348,5.7724,53.685
0.2552,-0.0257,0.0564,0.0105,-0.0186,-0.0059,-0.5036,0.694,0.3519,0.3754,13.1348,5.7724,53.685
0.2732,-0.0381,0.0178,0.0105,-0.0186,-0.0059,-0.5037,0.694,0.3519,0.3754,13.1348,5.7724,53.685
0.2309,-0.0814,0.0492,0.0094,-0.0399,-0.0027,-0.5037,0.6939,0.3519,0.3754,11.7386,7.1686,53.685
0.2366,-0.0934,0.0397,0.0094,-0.0399,-0.0027,-0.5036,0.6939,0.3519,0.3755,11.7386,7.1686,53.685
0.2082,-0.0949,0.015,0.0009,-0.0548,0.0059,-0.5036,0.6939,0.3519,0.3756,11.7386,7.1686,53.685
0.1461,-0.0731,0.0238,0.0009,-0.0601,0.008,-0.5036,0.6939,0.3519,0.3756,11.7386,7.1686,53.685
0.125,-0.031,-0.0017,-0.0044,-0.0633,0.0069,-0.5035,0.6938,0.352,0.3757,14.5325,5.7724,52.3254
0.0981,-0.0748,-0.0058,-0.0044,-0.0633,0.0069,-0.5035,0.6938,0.3521,0.3758,14.5325,5.7724,52.3254
0.0525,-0.0109,-0.0092,-0.0087,-0.0644,0.0048,-0.5035,0.6937,0.3522,0.3759,14.5325,5.7724,52.3254
0.0036,-0.0245,0.0147,-0.0066,-0.0601,-0.0027,-0.5034,0.6936,0.3522,0.376,14.5325,5.7724,52.3254
-0.0589,-0.042,0.0011,-0.0098,-0.0559,-0.008,-0.5034,0.6935,0.3523,0.3761,13.8336,5.7724,53.685
-0.0526,-0.0403,0.0209,-0.0098,-0.0559,-0.008,-0.5034,0.6934,0.3524,0.3762,13.8336,5.7724,53.685
-0.0777,-0.0554,0.0172,-0.014,-0.0537,-0.0048,-0.5034,0.6933,0.3525,0.3763,13.8336,5.7724,53.685
-0.0208,-0.0349,0.0152,-0.0161,-0.0484,0.0005,-0.5034,0.6932,0.3526,0.3764,13.8336,5.7724,53.685
-0.0275,-0.0284,0.0002,-0.0172,-0.0473,0.0069,-0.5034,0.6932,0.3527,0.3764,11.7386,5.7724,53.0045
-0.0191,-0.0238,0.0321,-0.0151,-0.0484,0.0122,-0.5035,0.693,0.3529,0.3765,11.7386,5.7724,53.0045
-0.0669,0.0471,0.0372,-0.014,-0.0452,0.0112,-0.5034,0.693,0.353,0.3765,11.7386,5.7724,53.0045
-0.0768,0.0153,0.0621,-0.013,-0.0399,0.0122,-0.5033,0.6929,0.3532,0.3767,11.7386,5.7724,53.0045
-0.0866,0.0644,0.0803,-0.0108,-0.0377,0.0154,-0.5033,0.6929,0.3532,0.3767,13.8336,6.4697,53.0045
-0.0942,0.0619,0.0616,-0.0087,-0.0314,0.0133,-0.5032,0.6929,0.3533,0.3767,13.8336,6.4697,53.0045
-0.0308,0.0833,0.0578,-0.0034,-0.0282,0.0122,-0.5031,0.6928,0.3534,0.3768,13.8336,6.4697,53.0045
0.05,0.081,0.0343,-0.0034,-0.0282,0.0122,-0.503,0.6928,0.3535,0.3768,13.8336,6.4697,53.0045
0.094,0.0684,0.031,-0.0044,-0.0292,0.0069,-0.503,0.6928,0.3535,0.3769,12.4374,7.8674,53.0045
0.0743,0.0959,0.0536,-0.0044,-0.0345,-0.0005,-0.5028,0.6929,0.3535,0.377,12.4374,7.8674,53.0045
-0.0479,0.0455,0.0421,-0.0023,-0.042,-0.008,-0.5027,0.6929,0.3536,0.377,12.4374,7.8674,53.0045
-0.0801,0.0327,0.0569,-0.0002,-0.0409,-0.0069,-0.5026,0.6929,0.3537,0.3771,12.4374,7.8674,53.0045
-0.14,-0.0164,0.0698,-0.0012,-0.0345,-0.0059,-0.5026,0.6928,0.3537,0.3772,13.1348,7.1686,52.3254
-0.1297,-0.0021,0.0214,-0.0012,-0.0345,-0.0059,-0.5025,0.6928,0.3537,0.3774,13.1348,7.1686,52.3254
-0.1314,-0.0443,0.0462,-0.0002,-0.0335,0.0016,-0.5025,0.6927,0.3538,0.3774,13.1348,7.1686,52.3254
-0.1949,-0.0387,0.0377,-0.0012,-0.0345,0.0069,-0.5024,0.6927,0.3539,0.3775,13.1348,7.1686,52.3254
-0.1944,-0.0231,0.0556,-0.0044,-0.0314,0.0091,-0.5024,0.6926,0.3539,0.3776,13.1348,7.1686,52.3254
-0.1596,-0.0064,0.0902,-0.0044,-0.0314,0.0091,-0.5023,0.6926,0.354,0.3778,13.1348,7.1686,52.3254
-0.1361,-0.007,0.1023,-0.0023,-0.026,0.0154,-0.5022,0.6926,0.3541,0.3778,13.1348,7.1686,52.3254
-0.1043,0.0375,0.1066,-0.0012,-0.025,0.0197,-0.5022,0.6925,0.3542,0.3779,13.1348,7.1686,52.3254
-0.0469,0.0367,0.1368,-0.0012,-0.0239,0.0229,-0.5021,0.6925,0.3543,0.3779,13.1348,5.7724,51.6449
-0.0168,0.0359,0.1471,-0.0002,-0.0228,0.024,-0.502,0.6925,0.3544,0.378,13.1348,5.7724,51.6449
0.0232,0.0503,0.1336,0.0041,-0.0228,0.0261,-0.502,0.6925,0.3545,0.378,13.1348,5.7724,51.6449
0.0243,0.049,0.1437,0.0116,-0.0239,0.0336,-0.5019,0.6925,0.3546,0.3781,13.1348,5.7724,51.6449
0.0307,0.0038,0.1592,0.0116,-0.026,0.0389,-0.5018,0.6925,0.3546,0.3781,13.8336,4.3747,53.0045
0.0276,-0.0227,0.1452,0.0147,-0.0271,0.0431,-0.5019,0.6923,0.3549,0.378,13.8336,4.3747,53.0045
-0.0088,-0.045,0.1123,0.0147,-0.0282,0.0517,-0.5018,0.6923,0.3549,0.3781,13.8336,4.3747,53.0045
-0.004,-0.09,0.0915,0.0105,-0.0282,0.0591,-0.5017,0.6923,0.355,0.3781,13.8336,4.3747,53.0045
-0.03,-0.0639,0.0898,0.0083,-0.0282,0.0634,-0.5016,0.6923,0.3551,0.3782,14.5325,7.1686,53.685
0.0111,-0.0761,0.0908,0.0083,-0.0282,0.0634,-0.5014,0.6924,0.3552,0.3782,14.5325,7.1686,53.685
0.0457,-0.0578,0.0989,0.003,-0.0292,0.0719,-0.5011,0.6925,0.3554,0.3783,14.5325,7.1686,53.685
0.0455,-0.0519,0.0585,0.003,-0.0292,0.0719,-0.5011,0.6925,0.3554,0.3783,14.5325,7.1686,53.685
-0.0403,-0.0733,0.0844,0.0009,-0.0367,0.073,-0.5009,0.6925,0.3555,0.3783,13.8336,5.7724,53.685
-0.0852,-0.0594,0.1454,0.003,-0.0282,0.0772,-0.5009,0.6925,0.3556,0.3783,13.8336,5.7724,53.685
-0.0675,-0.0303,0.1157,0.0041,-0.0228,0.0804,-0.5007,0.6925,0.3558,0.3783,13.8336,5.7724,53.685
-0.0013,-0.0333,0.0726,0.0041,-0.0228,0.0804,-0.5006,0.6926,0.3559,0.3783,13.8336,5.7724,53.685
0.0654,0.0252,0.0464,0.0041,-0.0207,0.0751,-0.5004,0.6926,0.356,0.3783,13.8336,6.4697,53.685
-0.0084,0.0162,0.0432,0.003,-0.0271,0.0698,-0.5002,0.6927,0.3561,0.3783,13.8336,6.4697,53.685
-0.1319,0.0266,0.0781,0.003,-0.0314,0.0655,-0.5001,0.6928,0.3562,0.3783,13.8336,6.4697,53.685
-0.2138,0.0642,0.0702,0.0083,-0.0239,0.0613,-0.4999,0.6928,0.3563,0.3783,13.8336,6.4697,53.685
-0.2449,0.0643,0.0585,0.0137,-0.0164,0.0591,-0.4998,0.6928,0.3564,0.3784,13.1348,5.7724,51.6449
-0.1687,0.0513,0.1061,0.0211,0.0038,0.0517,-0.4997,0.6929,0.3565,0.3784,13.1348,5.7724,51.6449
-0.1078,0.0517,0.0783,0.0201,0.007,0.0474,-0.4995,0.6929,0.3566,0.3784,13.1348,5.7724,51.6449
-0.0307,0.031,0.0765,0.0201,0.0049,0.0453,-0.4994,0.693,0.3566,0.3784,13.1348,5.7724,51.6449
0.0183,0.0243,0.0382,0.0201,-0.0015,0.0421,-0.4993,0.6931,0.3567,0.3784,13.1348,5.7724,52.3254
-0.0063,0.0398,0.0299,0.0201,-0.0015,0.0421,-0.4992,0.6931,0.3567,0.3783,13.1348,5.7724,52.3254
-0.0837,0.021,0.0425,0.0211,0.0006,0.0399,-0.4991,0.6932,0.3567,0.3783,13.1348,5.7724,52.3254
-0.1262,0.0468,0.0723,0.0233,0.0081,0.0421,-0.499,0.6932,0.3567,0.3784,13.1348,5.7724,52.3254
-0.1106,0.0457,0.0842,0.0233,0.0081,0.0421,-0.4989,0.6933,0.3568,0.3784,13.8336,6.4697,51.6449
-0.0762,0.0725,0.0587,0.0265,0.0166,0.0442,-0.4987,0.6934,0.3568,0.3784,13.8336,6.4697,51.6449
0.0375,0.0834,0.0303,0.0286,0.0187,0.0431,-0.4986,0.6935,0.3568,0.3784,13.8336,6.4697,51.6449
0.085,0.1166,0.0074,0.0329,0.0166,0.0399,-0.4985,0.6936,0.3567,0.3783,13.8336,6.4697,51.6449
0.0959,0.061,0.0256,0.0339,0.0059,0.0304,-0.4984,0.6938,0.3567,0.3783,13.8336,6.4697,51.6449
0.0648,0.0823,0.066,0.0339,0.0059,0.0304,-0.4982,0.6939,0.3566,0.3783,13.8336,6.4697,51.6449
0.057,0.0912,0.0355,0.0339,0.007,0.0282,-0.4981,0.694,0.3566,0.3783,13.8336,6.4697,51.6449
0.0612,0.0763,0.0739,0.0371,0.0102,0.024,-0.498,0.6941,0.3566,0.3783,13.8336,6.4697,51.6449
0.1067,0.0605,0.0398,0.0414,0.0081,0.0144,-0.4979,0.6942,0.3565,0.3783,13.1348,7.1686,53.0045
0.1249,0.0528,0.0587,0.0424,0.007,0.0101,-0.4977,0.6943,0.3564,0.3784,13.1348,7.1686,53.0045
0.0991,0.0533,0.0479,0.0424,0.007,0.0101,-0.4976,0.6944,0.3564,0.3784,13.1348,7.1686,53.0045
0.0811,0.0146,0.028,0.0371,-0.0015,-0.0005,-0.4975,0.6945,0.3563,0.3784,13.1348,7.1686,53.0045
0.0208,-0.0132,-0.0087,0.0392,0.0017,-0.0059,-0.4975,0.6945,0.3562,0.3785,13.1348,6.4697,53.685
-0.0761,-0.0072,-0.0344,0.035,0.0027,-0.008,-0.4975,0.6945,0.3561,0.3786,13.1348,6.4697,53.685
-0.1154,-0.0032,-0.0144,0.035,0.0027,-0.008,-0.4975,0.6945,0.3561,0.3786,13.1348,6.4697,53.685
-0.1854,-0.0316,-0.022,0.0297,0.007,-0.0069,-0.4975,0.6946,0.356,0.3786,13.1348,6.4697,53.685
-0.1487,-0.0309,0.0218,0.0275,0.0155,-0.008,-0.4975,0.6946,0.356,0.3786,14.5325,6.4697,50.9659
-0.1039,-0.0326,0.003,0.0243,0.024,-0.0112,-0.4975,0.6946,0.3559,0.3787,14.5325,6.4697,50.9659
-0.0679,-0.0471,0.024,0.0211,0.0358,-0.0101,-0.4975,0.6946,0.3558,0.3787,14.5325,6.4697,50.9659
0.0073,-0.0212,-0.0078,0.0211,0.0358,-0.0101,-0.4975,0.6946,0.3557,0.3787,14.5325,6.4697,50.9659
0.0837,-0.017,-0.0019,0.0211,0.0347,-0.0091,-0.4976,0.6947,0.3556,0.3787,14.5325,7.1686,52.3254
0.0799,-0.0541,0.0044,0.0169,0.0304,-0.0091,-0.4975,0.6948,0.3554,0.3787,14.5325,7.1686,52.3254
0.0921,-0.0787,0.0146,0.0147,0.0251,-0.0091,-0.4975,0.6948,0.3554,0.3787,14.5325,7.1686,52.3254
0.1021,-0.0684,-0.0071,0.0116,0.0219,-0.0059,-0.4976,0.6948,0.3552,0.3786,14.5325,7.1686,52.3254
0.1561,-0.0695,0.0327,0.0073,0.0219,-0.0069,-0.4976,0.6948,0.3552,0.3786,13.8336,6.4697,52.3254
0.1798,-0.026,-0.0125,0.0052,0.0187,-0.0048,-0.4977,0.6949,0.3552,0.3786,13.8336,6.4697,52.3254
0.1501,-0.0513,0.0354,0.003,0.0113,-0.0027,-0.4977,0.6949,0.3551,0.3786,13.8336,6.4697,52.3254
0.126,-0.0134,0.0162,-0.0044,-0.0111,-0.0112,-0.4977,0.6949,0.3551,0.3786,13.8336,6.4697,52.3254
0.0434,-0.0164,0.0151,-0.0044,-0.0132,-0.0122,-0.4977,0.6949,0.3551,0.3786,14.5325,6.4697,53.0045
0.0128,-0.0253,0.0012,-0.0044,-0.0132,-0.0122,-0.4977,0.6949,0.3551,0.3786,14.5325,6.4697,53.0045
0.0341,-0.0134,0.0488,-0.0023,-0.0101,-0.0165,-0.4977,0.6948,0.3551,0.3786,14.5325,6.4697,53.0045
-0.0418,-0.0104,0.0352,-0.0023,-0.0101,-0.0165,-0.4978,0.6948,0.3551,0.3787,14.5325,6.4697,53.0045
-0.0888,-0.0096,0.0433,-0.0034,-0.009,-0.0197,-0.4978,0.6947,0.3551,0.3787,14.5325,5.7724,52.3254
-0.1239,-0.0238,0.0552,-0.0044,0.0017,-0.0218,-0.4979,0.6946,0.3552,0.3788,14.5325,5.7724,52.3254
-0.1656,-0.0557,0.0369,-0.0023,0.0081,-0.0208,-0.498,0.6945,0.3551,0.3788,14.5325,5.7724,52.3254
-0.1998,-0.0319,0.0586,-0.0012,0.0134,-0.0186,-0.498,0.6945,0.3551,0.3788,14.5325,5.7724,52.3254
-0.1866,-0.0378,0.0661,-0.0012,0.0134,-0.0186,-0.4981,0.6945,0.3551,0.3789,13.8336,5.0735,53.0045
-0.1998,-0.0562,0.0712,-0.0023,0.0208,-0.0165,-0.4983,0.6943,0.3552,0.3788,13.8336,5.0735,53.0045
-0.1142,-0.0304,0.0509,-0.0044,0.0272,-0.0144,-0.4983,0.6943,0.3552,0.3788,13.8336,5.0735,53.0045
-0.1108,-0.0354,0.0285,-0.0034,0.0347,-0.0112,-0.4984,0.6942,0.3552,0.3788,13.8336,5.0735,53.0045
-0.0741,0.0004,0.0622,-0.0012,0.0368,-0.0101,-0.4985,0.6942,0.3551,0.3788,13.8336,5.7724,53.0045
-0.0263,0.018,0.0491,-0.0012,0.0368,-0.0101,-0.4986,0.6942,0.3551,0.3787,13.8336,5.7724,53.0045
-0.0269,0.0001,0.0609,0.0041,0.0379,-0.0069,-0.4986,0.6942,0.3551,0.3786,13.8336,5.7724,53.0045
0.0358,-0.0193,0.0222,0.0094,0.0347,-0.0048,-0.4986,0.6942,0.3551,0.3786,13.8336,5.7724,53.0045
0.0416,-0.0337,0.0411,0.0094,0.0294,-0.0016,-0.4987,0.6943,0.355,0.3786,12.4374,7.1686,53.0045
0.0862,-0.0633,0.064,0.0094,0.0294,-0.0016,-0.4987,0.6943,0.3549,0.3786,12.4374,7.1686,53.0045
0.041,-0.0835,0.0401,0.0083,0.0219,0.0027,-0.4987,0.6943,0.3549,0.3785,12.4374,7.1686,53.0045
0.1163,-0.0675,0.0103,0.0062,0.0198,0.0069,-0.4987,0.6943,0.3548,0.3785,12.4374,7.1686,53.0045
0.1244,-0.1035,0.0333,-0.0002,0.0049,0.0144,-0.4987,0.6944,0.3548,0.3785,13.8336,5.7724,53.0045
0.0915,-0.106,0.0071,-0.0002,0.0049,0.0144,-0.4988,0.6943,0.3548,0.3784,13.8336,5.7724,53.0045
0.1195,-0.0413,0.0309,-0.0034,-0.0005,0.0154,-0.4988,0.6943,0.3548,0.3784,13.8336,5.7724,53.0045
0.0644,-0.0405,0.0206,-0.0055,-0.0047,0.0165,-0.4988,0.6944,0.3548,0.3784,13.8336,5.7724,53.0045
0.0312,-0.0024,0.0415,-0.0023,-0.0143,0.0112,-0.4987,0.6944,0.3548,0.3784,12.4374,6.4697,53.685
-0.0645,-0.0098,0.0467,-0.0023,-0.0143,0.0112,-0.4987,0.6943,0.3549,0.3784,12.4374,6.4697,53.685
-0.1177,-0.0103,0.0295,-0.0066,-0.0037,0.008,-0.4987,0.6943,0.3549,0.3785,12.4374,6.4697,53.685
-0.1705,0.0063,0.0196,-0.0066,-0.0037,0.008,-0.4987,0.6943,0.355,0.3785,12.4374,6.4697,53.685
-0.1801,0.0182,0.0593,-0.0076,0.0038,0.0069,-0.4987,0.6943,0.355,0.3785,14.5325,5.7724,53.0045
-0.231,0.0443,0.0472,-0.0066,0.0208,0.0059,-0.4987,0.6943,0.355,0.3785,14.5325,5.7724,53.0045
-0.2052,0.0147,0.0508,-0.0066,0.0208,0.0059,-0.4986,0.6943,0.3551,0.3785,14.5325,5.7724,53.0045
-0.162,0.0275,0.0419,-0.0023,0.0368,0.008,-0.4986,0.6943,0.3551,0.3785,14.5325,5.7724,53.0045
-0.1246,0.0468,0.0426,-0.0012,0.0432,0.008,-0.4986,0.6944,0.355,0.3784,13.8336,7.1686,53.0045
-0.068,0.0729,0.0663,-0.0012,0.0432,0.008,-0.4985,0.6945,0.355,0.3784,13.8336,7.1686,53.0045
-0.0601,0.0286,0.0577,-0.0002,0.0485,0.0101,-0.4985,0.6946,0.3549,0.3784,13.8336,7.1686,53.0045
-0.0316,0.0648,0.0591,-0.0002,0.0528,0.0101,-0.4984,0.6947,0.3548,0.3782,13.8336,7.1686,53.0045
0.0401,0.0703,0.0556,0.003,0.056,0.008,-0.4984,0.6947,0.3548,0.3782,13.1348,7.1686,52.3254
0.1145,0.1069,0.0652,0.0041,0.0517,0.0069,-0.4983,0.6949,0.3547,0.3782,13.1348,7.1686,52.3254
0.1347,0.1096,0.062,0.0041,0.0517,0.0069,-0.4982,0.695,0.3547,0.3781,13.1348,7.1686,52.3254
0.0979,0.0881,0.0681,0.0083,0.0475,0.0037,-0.4982,0.6951,0.3546,0.378,13.1348,7.1686,52.3254
0.0721,0.0963,0.0827,0.0094,0.0421,0.0005,-0.4982,0.6952,0.3545,0.3779,14.5325,5.7724,52.3254
0.0413,0.0936,0.0387,0.0158,0.039,-0.0005,-0.4982,0.6952,0.3545,0.3779,14.5325,5.7724,52.3254
0.0502,0.0865,0.0602,0.019,0.0379,-0.0016,-0.4982,0.6953,0.3545,0.3778,14.5325,5.7724,52.3254
0.0194,0.0661,0.0305,0.0233,0.0336,-0.0069,-0.4982,0.6953,0.3544,0.3778,14.5325,5.7724,52.3254
0.0165,0.0667,0.0333,0.0243,0.0326,-0.008,-0.4981,0.6955,0.3542,0.3777,13.8336,7.1686,51.6449
0.0105,0.0081,0.0664,0.0254,0.0347,-0.008,-0.4981,0.6955,0.3542,0.3777,13.8336,7.1686,51.6449
0.0729,-0.0036,0.0253,0.0254,0.0347,-0.008,-0.4982,0.6955,0.3542,0.3777,13.8336,7.1686,51.6449
0.0539,0.0075,0.0075,0.0222,0.0304,-0.0101,-0.4982,0.6955,0.3541,0.3777,13.8336,7.1686,51.6449
0.0143,0.0162,0.0301,0.0222,0.0304,-0.0101,-0.4983,0.6955,0.354,0.3776,12.4374,7.1686,54.364
-0.0507,-0.0068,0.0382,0.0233,0.0251,-0.0112,-0.4983,0.6955,0.354,0.3776,12.4374,7.1686,54.364
-0.0895,-0.0138,0.0609,0.0222,0.0251,-0.0091,-0.4984,0.6955,0.3539,0.3776,12.4374,7.1686,54.364
-0.1195,-0.0217,0.0545,0.0265,0.0368,-0.0133,-0.4984,0.6955,0.3539,0.3776,12.4374,7.1686,54.364
-0.1306,0.0043,0.0269,0.0275,0.0411,-0.0133,-0.4985,0.6955,0.3538,0.3776,13.8336,7.8674,53.0045
-0.1448,0.0224,0.0077,0.0286,0.0454,-0.0133,-0.4984,0.6956,0.3537,0.3776,13.8336,7.8674,53.0045
-0.0871,-0.0112,-0.0001,0.0265,0.0507,-0.0154,-0.4985,0.6956,0.3536,0.3776,13.8336,7.8674,53.0045
-0.0525,0.0312,0.0354,0.0243,0.0549,-0.0165,-0.4986,0.6956,0.3535,0.3775,13.8336,7.8674,53.0045
-0.0441,0.02,0.0185,0.0243,0.0571,-0.0154,-0.4987,0.6957,0.3534,0.3775,14.5325,7.1686,54.364
0.0236,0.0046,0.0263,0.0243,0.0571,-0.0133,-0.4987,0.6957,0.3533,0.3775,14.5325,7.1686,54.364
0.0447,0.0376,0.031,0.0243,0.0571,-0.0133,-0.4987,0.6958,0.3532,0.3774,14.5325,7.1686,54.364
0.0693,0.0045,0.0833,0.0233,0.056,-0.0112,-0.4988,0.6958,0.3531,0.3773,14.5325,7.1686,54.364
0.0837,0.0037,0.0189,0.0265,0.0454,-0.0091,-0.4989,0.6959,0.353,0.3773,11.0397,7.1686,52.3254
0.0332,0.0293,0.0026,0.0265,0.0454,-0.0091,-0.4989,0.6959,0.3529,0.3772,11.0397,7.1686,52.3254
-0.0025,0.0111,0.0298,0.0286,0.0411,-0.0069,-0.4989,0.696,0.3528,0.3772,11.0397,7.1686,52.3254
-0.0946,0.0344,0.0377,0.0318,0.0464,-0.0091,-0.499,0.696,0.3527,0.3771,11.0397,7.1686,52.3254
-0.1175,0.0344,0.071,0.0339,0.0517,-0.0101,-0.4991,0.696,0.3526,0.3771,13.8336,6.4697,53.0045
-0.0519,0.0319,0.0588,0.0339,0.0517,-0.0101,-0.4991,0.696,0.3525,0.377,13.8336,6.4697,53.0045
0.0326,0.0275,0.0282,0.0318,0.0539,-0.0176,-0.4992,0.696,0.3524,0.377,13.8336,6.4697,53.0045
0.0746,0.0121,0.0448,0.0307,0.0485,-0.0229,-0.4994,0.6961,0.3522,0.3769,13.8336,6.4697,53.0045
0.137,0.017,0.0117,0.0318,0.0421,-0.0304,-0.4994,0.6961,0.3522,0.3769,11.7386,7.1686,52.3254
0.1503,-0.0244,0.0055,0.0318,0.0421,-0.0304,-0.4994,0.6962,0.3521,0.3769,11.7386,7.1686,52.3254
0.1215,-0.0531,-0.0193,0.0297,0.0379,-0.0378,-0.4994,0.6962,0.3519,0.3769,11.7386,7.1686,52.3254
0.0348,-0.0876,0.0023,0.0286,0.0315,-0.0421,-0.4995,0.6962,0.3517,0.3769,11.7386,7.1686,52.3254
-0.0158,-0.09,-0.0203,0.0286,0.0315,-0.0421,-0.4997,0.6962,0.3516,0.3769,13.8336,6.4697,53.685
0.0034,-0.1014,-0.0066,0.0275,0.0294,-0.0357,-0.4998,0.6962,0.3515,0.3769,13.8336,6.4697,53.685
0.0462,-0.1181,-0.0269,0.0243,0.0262,-0.0282,-0.4999,0.6962,0.3513,0.3769,13.8336,6.4697,53.685
0.0845,-0.0645,-0.0116,0.0243,0.0262,-0.0282,-0.5,0.6961,0.3512,0.3769,13.8336,6.4697,53.685
0.1309,-0.1198,-0.0384,0.0147,0.0081,-0.025,-0.5,0.6961,0.3511,0.3769,13.1348,6.4697,53.0045
0.131,-0.1201,0.0058,0.0147,0.0081,-0.025,-0.5001,0.6961,0.351,0.3769,13.1348,6.4697,53.0045
0.156,-0.1151,-0.0246,0.0126,0.0027,-0.0197,-0.5002,0.6961,0.3509,0.377,13.1348,6.4697,53.0045
0.1327,-0.1203,0.0386,0.0083,-0.0037,-0.0186,-0.5003,0.696,0.3509,0.377,13.1348,6.4697,53.0045
0.1036,-0.0969,-0.0423,0.002,-0.0175,-0.0091,-0.5003,0.696,0.3508,0.377,13.1348,6.4697,53.0045
0.0636,-0.1068,0.0176,0.002,-0.0175,-0.0091,-0.5004,0.696,0.3508,0.377,13.1348,6.4697,53.0045
0.0133,-0.0919,0.0201,0.002,-0.0164,-0.0059,-0.5004,0.6959,0.3508,0.3771,13.1348,6.4697,53.0045
0.0143,-0.081,-0.0123,0.0009,-0.0122,0.0005,-0.5005,0.6959,0.3508,0.3771,13.1348,6.4697,53.0045
0.0629,-0.07,0.0059,-0.0012,-0.0132,0.0005,-0.5005,0.6958,0.3508,0.3772,15.2298,6.4697,53.0045
0.0464,-0.0402,-0.0037,-0.0012,-0.0132,0.0005,-0.5005,0.6958,0.3508,0.3772,15.2298,6.4697,53.0045
0.0659,-0.017,-0.0229,-0.0055,-0.0132,-0.0005,-0.5005,0.6958,0.3508,0.3772,15.2298,6.4697,53.0045
0.0848,0.0006,0.0309,-0.0119,-0.009,-0.0059,-0.5005,0.6958,0.3509,0.3772,15.2298,6.4697,53.0045
0.0642,-0.0029,0.0243,-0.013,-0.0079,-0.008,-0.5005,0.6958,0.3509,0.3772,11.7386,7.1686,53.685
0.0396,-0.0171,-0.013,-0.0151,-0.0101,-0.0091,-0.5005,0.6958,0.3509,0.3772,11.7386,7.1686,53.685
-0.0347,-0.0251,0.0057,-0.0108,-0.0079,-0.0101,-0.5005,0.6957,0.3509,0.3772,11.7386,7.1686,53.685
-0.0907,-0.0371,-0.0256,-0.0087,-0.0026,-0.0091,-0.5006,0.6957,0.3509,0.3772,11.7386,7.1686,53.685
-0.0931,-0.0291,-0.04,-0.0087,-0.0026,-0.0091,-0.5006,0.6956,0.3509,0.3772,14.5325,7.1686,51.6449
-0.0869,0.0288,-0.0483,-0.0108,-0.0005,-0.0059,-0.5005,0.6957,0.3509,0.3773,14.5325,7.1686,51.6449
-0.055,-0.0061,-0.0172,-0.0119,0.0081,-0.0016,-0.5005,0.6957,0.3509,0.3773,14.5325,7.1686,51.6449
-0.0353,0.0273,-0.0508,-0.0151,0.0166,-0.0048,-0.5006,0.6957,0.3509,0.3772,14.5325,7.1686,51.6449
0.0255,0.0667,-0.0317,-0.0151,0.0166,-0.0048,-0.5006,0.6957,0.3509,0.3772,11.7386,6.4697,53.0045
0.0116,0.0374,-0.0578,-0.0151,0.0166,-0.0048,-0.5007,0.6957,0.3509,0.3771,11.7386,6.4697,53.0045
0.046,0.0597,-0.0518,-0.0076,0.0123,-0.0133,-0.5007,0.6957,0.3509,0.377,11.7386,6.4697,53.0045
0.033,0.0466,0.0016,-0.0044,0.0113,-0.0122,-0.5007,0.6957,0.3509,0.377,11.7386,6.4697,53.0045
0.042,0.0335,0.0305,-0.0044,0.0113,-0.0122,-0.5007,0.6957,0.3509,0.377,11.7386,6.4697,53.0045
0.1178,0.0254,-0.0261,0.0052,0.0059,-0.008,-0.5008,0.6957,0.3509,0.3769,12.4374,6.4697,53.0045
0.1436,0.0456,-0.0081,0.0052,0.0059,-0.008,-0.5008,0.6957,0.3508,0.3769,12.4374,6.4697,53.0045
0.194,0.01,-0.0626,0.0094,-0.0079,-0.0048,-0.5008,0.6958,0.3508,0.3769,12.4374,6.4697,53.0045
0.1314,0.0211,-0.0554,0.0094,-0.0079,-0.0048,-0.5007,0.6958,0.3508,0.3769,13.1348,7.1686,51.6449
0.0902,-0.0142,-0.0746,0.0116,-0.0186,-0.0048,-0.5006,0.6959,0.3507,0.377,13.1348,7.1686,51.6449
0.055,-0.0145,-0.0565,0.0147,-0.0228,-0.0027,-0.5006,0.6959,0.3507,0.377,13.1348,7.1686,51.6449
-0.0064,0.0065,-0.0614,0.0147,-0.0228,-0.0027,-0.5006,0.6959,0.3506,0.3771,13.1348,7.1686,51.6449
-0.0515,-0.0116,-0.106,0.0116,-0.0228,-0.0048,-0.5006,0.6959,0.3506,0.3771,13.1348,7.1686,54.364
-0.129,0.0264,-0.0909,0.0083,-0.0164,-0.0005,-0.5005,0.6959,0.3506,0.3772,13.1348,7.1686,54.364
-0.1094,-0.0164,-0.0537,0.0083,-0.0079,0.0016,-0.5005,0.6959,0.3506,0.3772,13.1348,7.1686,54.364
-0.0796,-0.0046,-0.0598,0.0116,-0.0026,0.0027,-0.5005,0.6959,0.3506,0.3772,13.1348,7.1686,54.364
-0.0217,0.0188,-0.0824,0.0116,-0.0026,0.0027,-0.5005,0.6959,0.3506,0.3772,14.5325,7.1686,53.0045
-0.0034,-0.0162,-0.0716,0.0126,-0.0005,0.0016,-0.5004,0.696,0.3505,0.3773,14.5325,7.1686,53.0045
-0.0112,0.0238,-0.0347,0.0126,0.0017,0.0037,-0.5004,0.696,0.3505,0.3773,14.5325,7.1686,53.0045
-0.005,-0.0048,-0.031,0.0179,0.0059,0.0005,-0.5004,0.6961,0.3504,0.3773,14.5325,7.1686,53.0045
0.0355,-0.0062,-0.0547,0.019,0.007,0.0027,-0.5004,0.6961,0.3504,0.3773,12.4374,5.7724,54.364
0.0963,-0.0073,-0.0394,0.019,0.0038,0.0016,-0.5006,0.696,0.3504,0.3772,12.4374,5.7724,54.364
0.106,0.0013,-0.0637,0.019,0.0038,0.0016,-0.5006,0.696,0.3504,0.3771,12.4374,5.7724,54.364
0.1162,-0.0373,-0.0563,0.0201,-0.0005,-0.0037,-0.5006,0.696,0.3504,0.3771,12.4374,5.7724,54.364
0.0986,-0.0358,-0.0558,0.0201,-0.0015,-0.0027,-0.5007,0.696,0.3503,0.3771,11.7386,7.1686,53.685
0.0816,-0.033,-0.0369,0.0179,-0.0026,0.0005,-0.5007,0.696,0.3503,0.3771,11.7386,7.1686,53.685
0.0792,-0.0626,-0.0291,0.0179,-0.0026,0.0005,-0.5007,0.696,0.3502,0.3771,11.7386,7.1686,53.685
0.1257,-0.0814,-0.0401,0.0169,-0.0101,0.0027,-0.5008,0.696,0.3502,0.3771,11.7386,7.1686,53.685
0.1166,-0.0876,-0.0386,0.0169,-0.0143,0.0037,-0.5008,0.696,0.3502,0.3771,13.8336,7.1686,53.685
0.1009,-0.0909,-0.0666,0.0126,-0.0186,0.0027,-0.5008,0.696,0.3501,0.3771,13.8336,7.1686,53.685
0.0632,-0.085,-0.0597,0.0116,-0.0207,0.0048,-0.5009,0.6959,0.3501,0.3771,13.8336,7.1686,53.685
0.0753,-0.0984,-0.0691,0.0094,-0.0228,0.0069,-0.5009,0.6959,0.3501,0.3771,13.8336,7.1686,53.685
0.0752,-0.1189,-0.0616,0.0041,-0.026,0.0091,-0.5009,0.6959,0.3501,0.3772,13.1348,5.7724,52.3254
0.0227,-0.0857,-0.0625,0.0041,-0.0271,0.0059,-0.501,0.6958,0.3502,0.3771,13.1348,5.7724,52.3254
0.0249,-0.0647,-0.0362,0.002,-0.0282,0.0048,-0.5011,0.6957,0.3502,0.3772,13.1348,5.7724,52.3254
0.0153,-0.0653,-0.0468,0.002,-0.0282,0.0048,-0.5011,0.6957,0.3502,0.3772,13.1348,5.7724,52.3254
0.044,-0.0973,-0.0171,-0.0044,-0.0282,0.0016,-0.5011,0.6957,0.3502,0.3772,13.1348,7.1686,53.685
0.0135,-0.0578,-0.0435,-0.0044,-0.0282,0.0016,-0.5011,0.6956,0.3502,0.3773,13.1348,7.1686,53.685
0.0158,-0.098,-0.029,-0.0076,-0.0292,0.0037,-0.5011,0.6956,0.3503,0.3773,13.1348,7.1686,53.685
0.0403,-0.1092,-0.0286,-0.0098,-0.0282,0.0048,-0.5011,0.6955,0.3503,0.3774,13.1348,7.1686,53.685
0.0205,-0.0766,-0.0327,-0.0151,-0.0314,0.0048,-0.5011,0.6955,0.3503,0.3774,12.4374,8.5663,52.3254
0.003,-0.0597,-0.029,-0.0183,-0.0335,0.0059,-0.5009,0.6956,0.3503,0.3776,12.4374,8.5663,52.3254
-0.0112,-0.042,-0.0219,-0.0183,-0.0335,0.0059,-0.5009,0.6956,0.3503,0.3776,12.4374,8.5663,52.3254
-0.0469,-0.0169,-0.0254,-0.0183,-0.0303,0.0037,-0.5009,0.6955,0.3504,0.3776,12.4374,8.5663,52.3254
-0.0554,-0.0077,0.0216,-0.0183,-0.0292,0.0048,-0.5008,0.6955,0.3504,0.3777,13.1348,7.8674,53.0045
-0.0739,0.0013,-0.0178,-0.0161,-0.026,0.0048,-0.5007,0.6956,0.3504,0.3778,13.1348,7.8674,53.0045
-0.0306,0.0053,0.0153,-0.0151,-0.0239,0.0027,-0.5006,0.6955,0.3505,0.3778,13.1348,7.8674,53.0045
0.012,-0.0154,-0.0028,-0.014,-0.0239,0.0037,-0.5006,0.6955,0.3505,0.3779,13.1348,7.8674,53.0045
-0.0277,-0.0181,0.0347,-0.0108,-0.0228,0.0037,-0.5006,0.6955,0.3506,0.3779,12.4374,6.4697,53.0045
-0.0171,-0.0136,0.0206,-0.0108,-0.0228,0.0027,-0.5006,0.6954,0.3507,0.3779,12.4374,6.4697,53.0045
0.0058,-0.0186,0.0218,-0.0108,-0.0228,0.0027,-0.5006,0.6954,0.3507,0.3779,12.4374,6.4697,53.0045
0.0065,-0.0282,-0.0007,-0.013,-0.0207,0.0027,-0.5006,0.6954,0.3507,0.378,12.4374,6.4697,53.0045
0.0018,-0.0682,0.0399,-0.0151,-0.0207,0.0027,-0.5005,0.6954,0.3508,0.378,13.1348,6.4697,53.0045
-0.0444,-0.0732,0.0045,-0.0151,-0.0207,0.0027,-0.5006,0.6953,0.3508,0.378,13.1348,6.4697,53.0045
-0.0646,-0.0727,0.0139,-0.0183,-0.0196,0.0069,-0.5005,0.6953,0.3509,0.3781,13.1348,6.4697,53.0045
-0.0365,-0.0974,0.013,-0.0183,-0.0196,0.0069,-0.5005,0.6952,0.3509,0.3781,13.1348,6.4697,53.0045
-0.0166,-0.0651,-0.02,-0.0225,-0.0143,0.0059,-0.5005,0.6952,0.351,0.3781,13.1348,7.1686,54.364
-0.0235,-0.0833,-0.0111,-0.0257,-0.0164,0.008,-0.5005,0.6952,0.351,0.3782,13.1348,7.1686,54.364
0.0019,-0.0585,-0.0315,-0.0279,-0.0154,0.0122,-0.5005,0.6952,0.351,0.3782,13.1348,7.1686,54.364
-0.0601,-0.0466,0.0095,-0.0279,-0.0154,0.0122,-0.5004,0.6952,0.351,0.3782,13.1348,7.1686,54.364
-0.0496,-0.052,0.0495,-0.0321,-0.0154,0.0144,-0.5004,0.6952,0.3511,0.3782,12.4374,7.1686,53.0045
-0.045,-0.0344,0.0162,-0.0311,-0.0154,0.0176,-0.5003,0.6952,0.3511,0.3783,12.4374,7.1686,53.0045
-0.0242,-0.0226,0.0078,-0.0311,-0.0154,0.0186,-0.5002,0.6952,0.3512,0.3783,12.4374,7.1686,53.0045
-0.0505,0.0044,-0.013,-0.0311,-0.0154,0.0186,-0.5002,0.6952,0.3512,0.3783,12.4374,7.1686,53.0045
-0.0299,0.055,0.0187,-0.0321,-0.0132,0.0176,-0.5001,0.6953,0.3513,0.3783,13.1348,5.7724,53.685
-0.0108,0.0628,-0.0108,-0.0311,-0.0111,0.0208,-0.5001,0.6952,0.3514,0.3783,13.1348,5.7724,53.685
0.0001,0.0773,0.0146,-0.0311,-0.0111,0.0208,-0.5,0.6953,0.3515,0.3783,13.1348,5.7724,53.685
-0.0189,0.0679,0.0214,-0.0257,-0.0164,0.0176,-0.4999,0.6953,0.3516,0.3783,13.1348,5.7724,53.685
-0.0129,0.0847,-0.0074,-0.0225,-0.0132,0.0176,-0.4997,0.6954,0.3516,0.3783,13.8336,6.4697,54.364
-0.025,0.1208,0.0166,-0.0183,-0.0122,0.0176,-0.4997,0.6954,0.3517,0.3782,13.8336,6.4697,54.364
-0.0042,0.0857,0.0366,-0.0151,-0.0132,0.0186,-0.4996,0.6954,0.3518,0.3782,13.8336,6.4697,54.364
0.0249,0.0977,0.0117,-0.0151,-0.0132,0.0186,-0.4995,0.6955,0.3518,0.3782,13.8336,6.4697,54.364
0.0605,0.1227,0.0281,-0.0076,-0.0143,0.0165,-0.4994,0.6955,0.3519,0.3782,13.8336,5.7724,52.3254
0.0558,0.1062,0.0301,-0.0076,-0.0143,0.0165,-0.4993,0.6955,0.352,0.3782,13.8336,5.7724,52.3254
0.0506,0.1024,0.0428,-0.0044,-0.0164,0.0176,-0.4992,0.6956,0.352,0.3782,13.8336,5.7724,52.3254
0.0508,0.1183,0.0172,-0.0044,-0.0164,0.0165,-0.4991,0.6956,0.3521,0.3782,13.8336,5.7724,52.3254
0.0805,0.1168,0.0165,0.0041,-0.0207,0.0154,-0.499,0.6956,0.3522,0.3782,13.8336,5.7724,54.364
0.0619,0.0824,0.0225,0.0041,-0.0207,0.0154,-0.499,0.6956,0.3523,0.3782,13.8336,5.7724,54.364
0.1026,0.0946,0.041,0.0009,-0.0282,0.0112,-0.499,0.6956,0.3523,0.3782,13.8336,5.7724,54.364
0.0897,0.0974,0.0526,0.0041,-0.0314,0.008,-0.4989,0.6956,0.3524,0.3782,13.8336,5.7724,54.364
0.1051,0.0836,0.0525,0.0062,-0.0356,0.008,-0.4988,0.6956,0.3525,0.3782,12.4374,7.8674,51.6449
0.0472,0.0952,0.0169,0.0083,-0.0377,0.008,-0.4986,0.6957,0.3524,0.3783,12.4374,7.8674,51.6449
0.0005,0.0706,0.033,0.0083,-0.0377,0.008,-0.4986,0.6957,0.3525,0.3784,12.4374,7.8674,51.6449
-0.0074,0.0779,0.0621,0.0094,-0.0377,0.0069,-0.4985,0.6957,0.3526,0.3784,12.4374,7.8674,51.6449
-0.0081,0.0587,0.0316,0.0094,-0.0345,0.008,-0.4985,0.6956,0.3527,0.3785,13.1348,6.4697,51.6449
0.0174,0.0297,0.0068,0.0083,-0.0335,0.0069,-0.4984,0.6956,0.3527,0.3785,13.1348,6.4697,51.6449
0.0176,0.0747,0.0101,0.0094,-0.0324,0.008,-0.4984,0.6956,0.3528,0.3786,13.1348,6.4697,51.6449
0.0447,0.0281,0.0094,0.0073,-0.0356,0.0037,-0.4983,0.6956,0.3529,0.3786,13.1348,6.4697,51.6449
-0.0273,0.0423,-0.0053,0.0073,-0.0367,0.0048,-0.4983,0.6955,0.3529,0.3786,14.5325,5.0735,52.3254
-0.0218,0.0356,-0.007,0.0116,-0.0356,0.0027,-0.4984,0.6954,0.3531,0.3786,14.5325,5.0735,52.3254
-0.0623,0.0262,0.0418,0.0137,-0.0335,-0.0027,-0.4984,0.6953,0.3531,0.3787,14.5325,5.0735,52.3254
-0.03,0.0327,0.0471,0.0137,-0.0292,-0.0027,-0.4984,0.6953,0.3532,0.3787,14.5325,5.0735,52.3254
-0.0085,0.007,0.0502,0.0116,-0.0303,-0.0048,-0.4984,0.6952,0.3532,0.3788,13.1348,7.1686,53.685
0.0411,-0.0144,-0.0034,0.0116,-0.0303,-0.0048,-0.4984,0.6952,0.3533,0.3789,13.1348,7.1686,53.685
0.0628,-0.0347,0.0107,0.0062,-0.0399,-0.0037,-0.4984,0.6951,0.3533,0.3789,13.1348,7.1686,53.685
0.0321,-0.058,-0.0234,0.0062,-0.0399,-0.0037,-0.4984,0.6951,0.3533,0.379,13.1348,7.1686,53.685
0.0293,-0.0696,0.0238,-0.0012,-0.0452,0.0027,-0.4984,0.695,0.3534,0.3791,13.1348,7.1686,53.0045
0.053,-0.0344,0.0134,-0.0012,-0.0452,0.0027,-0.4984,0.6949,0.3534,0.3792,13.1348,7.1686,53.0045
0.0658,0.0164,0.0325,-0.0066,-0.0495,0.0091,-0.4984,0.6949,0.3535,0.3792,13.1348,7.1686,53.0045
0.0246,0.0312,0.051,-0.0108,-0.0516,0.0059,-0.4983,0.6948,0.3536,0.3793,13.1348,7.1686,53.0045
-0.0237,0.1147,0.0244,-0.013,-0.0537,0.0048,-0.4982,0.6948,0.3537,0.3794,15.9286,6.4697,53.685
-0.0395,0.1146,0.0835,-0.0066,-0.0537,-0.0027,-0.4981,0.6948,0.3538,0.3794,15.9286,6.4697,53.685
-0.0679,0.1354,0.0331,-0.0023,-0.0516,-0.0091,-0.498,0.6947,0.3539,0.3795,15.9286,6.4697,53.685
-0.1006,0.1221,0.0502,0.002,-0.0484,-0.0144,-0.498,0.6947,0.354,0.3796,15.9286,6.4697,53.685
-0.1396,0.1379,0.065,0.0062,-0.0409,-0.0218,-0.498,0.6946,0.3542,0.3797,13.8336,7.1686,51.6449
-0.15,0.13,0.0607,0.0105,-0.0324,-0.0293,-0.4978,0.6946,0.3542,0.3798,13.8336,7.1686,51.6449
-0.1794,0.0485,0.0325,0.0105,-0.0324,-0.0293,-0.4979,0.6945,0.3543,0.3799,13.8336,7.1686,51.6449
-0.1271,0.0323,0.0315,0.0179,-0.0196,-0.0368,-0.4979,0.6944,0.3543,0.38,13.8336,7.1686,51.6449
-0.1,-0.0383,0.049,0.0158,-0.0164,-0.0378,-0.498,0.6942,0.3543,0.3801,13.8336,5.7724,53.685
-0.0948,-0.0792,0.0495,0.0158,-0.0164,-0.0378,-0.4982,0.694,0.3544,0.3801,13.8336,5.7724,53.685
-0.0644,-0.0968,0.0618,0.0137,-0.0132,-0.0346,-0.4983,0.6939,0.3544,0.3802,13.8336,5.7724,53.685
-0.094,-0.1374,0.0219,0.0126,-0.0164,-0.025,-0.4984,0.6938,0.3544,0.3803,13.8336,5.7724,53.685
-0.1239,-0.1824,0.0374,0.0105,-0.0164,-0.0101,-0.4985,0.6937,0.3544,0.3803,14.5325,5.7724,53.685
-0.1308,-0.1202,0.0485,0.0105,-0.0164,-0.0101,-0.4987,0.6935,0.3545,0.3804,14.5325,5.7724,53.685
-0.0756,-0.1542,0.0363,0.0083,-0.0186,-0.0005,-0.4988,0.6934,0.3545,0.3804,14.5325,5.7724,53.685
-0.0232,-0.1403,0.019,0.002,-0.0186,0.0091,-0.4988,0.6933,0.3545,0.3805,14.5325,5.7724,53.685
0.0213,-0.1093,0.0545,-0.0066,-0.025,0.0197,-0.4988,0.6933,0.3545,0.3805,15.2298,6.4697,52.3254
-0.0081,-0.0752,0.0817,-0.0066,-0.025,0.0197,-0.4988,0.6933,0.3546,0.3806,15.2298,6.4697,52.3254
0.037,-0.041,0.1094,-0.0098,-0.026,0.0229,-0.4987,0.6933,0.3547,0.3806,15.2298,6.4697,52.3254
0.0151,-0.0172,0.0738,-0.0066,-0.0324,0.0218,-0.4987,0.6932,0.3547,0.3807,15.2298,6.4697,52.3254
0.0376,-0.0171,0.0583,-0.0055,-0.0335,0.0197,-0.4986,0.6932,0.3548,0.3807,13.1348,4.3747,52.3254
-0.0272,0.0165,0.0539,-0.0034,-0.0292,0.0186,-0.4988,0.693,0.355,0.3807,13.1348,4.3747,52.3254
